TIME,Mills,Ax,Ay,Az,Gx,Gy,Gz,Lat,Lon,Speed,Class
19-02-2019 6.28,1550000000000.0,0.30467224,6.8753204,3.5077667000000003,-0.48353577,-0.44561768,0.033966064,10.60752876,76.13738339,0.34,0
19-02-2019 6.28,1550000000000.0,3.2662964,4.3015594,12.711089999999999,-0.38980103,-0.38490295,0.040359497,10.60752876,76.13738339,0.34,0
19-02-2019 6.28,1550000000000.0,-0.0688324,5.7261047,7.316940299999999,0.14709473,0.35440063,-0.03314209,10.60752876,76.13738339,0.34,0
19-02-2019 6.28,1550000000000.0,2.1170807000000003,7.4714813,5.925918599999999,0.13537598,0.14027405,0.041427612,10.60752876,76.13738339,0.34,0
19-02-2019 6.28,1550000000000.0,1.4682465,3.248108,11.324844,-0.29072570000000003,0.075302124,-0.050186157,10.60752876,76.13738339,0.34,0
19-02-2019 6.28,1550000000000.0,0.16340637,6.2265015,6.2658997,0.18331909,0.14666748,-0.07148743,10.60752876,76.13738339,0.34,0
19-02-2019 6.28,1550000000000.0,1.4131775,3.5497742,11.006409,-0.13412476,0.0028533940000000004,0.02331543,10.60752876,76.13738339,0.34,0
19-02-2019 6.28,1550000000000.0,-0.07601929,7.054886,5.1477965999999995,0.31967163,0.12536621,-0.0043792729999999995,10.60752876,76.13738339,0.34,0
19-02-2019 6.28,1550000000000.0,0.07003784,3.3079681000000005,9.842834,-0.22041321,0.009246826,-0.049118042,10.60752876,76.13738339,0.34,0
19-02-2019 6.28,1550000000000.0,0.31184387,5.967926,3.6418457,0.19290161,-0.007797241,-0.02142334,10.60752876,76.13738339,0.34,0
19-02-2019 6.28,1550000000000.0,-0.40881348,5.165863,8.087875,-0.18525696,0.05079651,-0.038467407,10.60752876,76.13738339,0.34,0
19-02-2019 6.28,1550000000000.0,0.41958618,4.1650849999999995,12.418991,-0.19059753,-0.12284851,-0.038467407,10.60752876,76.13738339,0.34,0
19-02-2019 6.28,1550000000000.0,-0.53330994,7.133896000000001,4.793457,0.32286072,0.20100403,0.005203247,10.60752876,76.13738339,0.34,0
19-02-2019 6.28,1550000000000.0,0.70928955,5.1036224,4.8772583,0.074661255,-0.030166626000000002,0.024383545,10.60752876,76.13738339,0.34,0
19-02-2019 6.28,1550000000000.0,-1.6777343999999996,4.9192656999999995,10.625732000000001,-0.19165039,0.034820557,-0.17588806,10.60752876,76.13738339,0.34,0
19-02-2019 6.28,1550000000000.0,1.9423065,4.426056,10.65686,-0.22254944,-0.20167542,-0.05230713,10.60752876,76.13738339,0.34,0
19-02-2019 6.28,1550000000000.0,-1.4048003999999998,8.287903,1.6115723,0.40275574,0.32882690000000003,-0.037399292,10.60752876,76.13738339,0.34,0
19-02-2019 6.28,1550000000000.0,2.2343903,6.286346400000001,6.711212,-0.04145813,-0.119644165,-0.037399292,10.60752876,76.13738339,0.34,0
19-02-2019 6.28,1550000000000.0,-1.0480652,4.6822357000000006,7.1708984,-0.12986755,0.19140625,-0.14498901,10.60752876,76.13738339,0.34,0
19-02-2019 6.28,1550000000000.0,3.189682,4.457184,9.955353,-0.15756226,-0.10366821,-0.039535522000000003,10.60752876,76.13738339,0.34,0
19-02-2019 6.28,1550000000000.0,-1.6657562,5.683014,7.0607758,0.109817505,0.33096313,-0.08639526,10.60752876,76.13738339,0.34,0
19-02-2019 6.28,1550000000000.0,2.691681,7.6007690000000006,8.676849,0.10021973,-0.07597351,-0.003311157,10.60752876,76.13738339,0.34,0
19-02-2019 6.28,1550000000000.0,0.1083374,4.153122,11.339203,-0.21508789,0.12110901,-0.12582397,10.60752876,76.13738339,0.34,0
19-02-2019 6.28,1550000000000.0,3.1082764,7.584014999999999,3.505371,0.07252502400000001,-0.008865356,-0.06616211,10.60752876,76.13738339,0.34,0
19-02-2019 6.28,1550000000000.0,-0.641037,6.0062256,3.7328339,-0.15756226,0.20632935,-0.13008118,10.60752876,76.13738339,0.34,0
19-02-2019 6.28,1550000000000.0,2.1170807000000003,5.141922,11.023178,-0.23001099,-0.119644165,-0.090667725,10.60752876,76.13738339,0.34,0
19-02-2019 6.28,1550000000000.0,0.17776489999999998,4.2464905,12.220276,-0.06808472,0.07849121,-0.060836792,10.60752876,76.13738339,0.34,0
19-02-2019 6.28,1550000000000.0,1.4897919,7.351775999999999,3.7950745,0.22592163,-0.004592896,-0.003311157,10.60752876,76.13738339,0.34,0
19-02-2019 6.28,1550000000000.0,0.20649719,5.386139,4.187729,-0.14051819,0.059310913,-0.016098022,10.60752876,76.13738339,0.34,0
19-02-2019 6.28,1550000000000.0,1.477829,3.4635925000000003,13.000778,-0.1330719,-0.096206665,0.00201416,10.60752876,76.13738339,0.34,0
19-02-2019 6.28,1550000000000.0,0.43634033,1.2657166000000002,15.038254,-0.08619689999999999,0.035888672,0.007339478000000001,10.60752876,76.13738339,0.34,0
19-02-2019 6.28,1550000000000.0,-0.37528992,9.360503999999999,4.2571564,0.5774689000000001,0.09234619,0.042495727999999997,10.60752876,76.13738339,0.34,0
19-02-2019 6.28,1550000000000.0,1.6980896,6.6502686,10.398285000000001,-0.169281,-0.19847107,0.042495727999999997,10.60752876,76.13738339,0.34,0
19-02-2019 6.28,1550000000000.0,-2.5396422999999997,6.482681299999999,7.721572999999999,0.26960754,-0.004592896,-0.03314209,10.60752876,76.13738339,0.34,0
19-02-2019 6.28,1550000000000.0,2.2200317000000003,1.1675568,14.880234,-0.27368164,-0.39341736,0.092559814,10.60752876,76.13738339,0.34,0
19-02-2019 6.28,1550000000000.0,-2.5372467,8.11792,2.0784302,0.45069885,0.040145874,0.055282593,10.60752876,76.13738339,0.34,0
19-02-2019 6.28,1550000000000.0,0.2519989,4.624771,9.988876,-0.27900696,-0.35400390000000004,0.106414795,10.60752876,76.13738339,0.34,0
19-02-2019 6.28,1550000000000.0,-1.0744018999999998,5.228119,11.774948,0.048034667999999996,-0.21446228,0.082977295,10.60752876,76.13738339,0.34,0
19-02-2019 6.28,1550000000000.0,1.1929169,7.002228,5.954651,0.32180786,-0.1494751,0.12878418,10.60752876,76.13738339,0.34,0
19-02-2019 6.28,1550000000000.0,-1.490982,7.655838,10.015213000000001,0.19929504,-0.018447876000000002,0.08509827,10.60752876,76.13738339,0.34,0
19-02-2019 6.28,1550000000000.0,3.2806550000000003,8.297485,9.325683999999999,0.15988159,-0.35293579999999997,0.17671204,10.60752876,76.13738339,0.34,0
19-02-2019 6.28,1550000000000.0,-2.4558562999999998,6.643097,4.2380066,0.05229187,0.09660339,0.059539795,10.60752876,76.13738339,0.34,0
19-02-2019 6.28,1550000000000.0,1.9830017,7.212905999999999,7.3552550000000005,-0.008422852,-0.34121704,0.16394043,10.60752876,76.13738339,0.34,0
19-02-2019 6.28,1550000000000.0,-2.300232,7.871322599999999,2.9642944,0.0075531009999999996,-0.08023071,0.07765198,10.60752876,76.13738339,0.34,0
19-02-2019 6.28,1550000000000.0,-0.715271,4.8043365,11.612152,-0.44198608,-0.26239014,0.18737793,10.60752876,76.13738339,0.34,0
19-02-2019 6.28,1550000000000.0,3.1130676,10.782669,3.2372284,-0.27793884,-0.25813293,0.2598114,10.60752876,76.13738339,0.34,0
19-02-2019 6.28,1550000000000.0,-2.6737213,11.287842,-3.6652527000000004,0.001159668,0.39593506,0.057403564000000004,10.60752876,76.13738339,0.34,0
19-02-2019 6.28,1550000000000.0,6.0914459999999995,5.062912,15.047820999999999,-0.75730896,-0.26559448,0.17245483,10.60752876,76.13738339,0.34,0
19-02-2019 6.28,1550000000000.0,0.4339447,7.622314500000001,6.093506,0.1918335,0.43109129999999996,-0.09918213,10.60752876,76.13738339,0.34,0
19-02-2019 6.28,1550000000000.0,3.3285370000000003,6.3414154,10.280975,-0.28965759999999996,0.12750244,-0.08001709,10.60752876,76.13738339,0.34,0
19-02-2019 6.28,1550000000000.0,3.0220795,9.707672,5.3489075,0.2664032,0.11683655,0.03717041,10.60752876,76.13738339,0.34,0
19-02-2019 6.28,1550000000000.0,2.3445282000000005,6.9806669999999995,4.2380066,-0.17460632,0.29794312,-0.005447388,10.60752876,76.13738339,0.34,0
19-02-2019 6.28,1550000000000.0,1.4131775,5.050949,6.828537,-0.27261353,0.07316589,0.052078247,10.60752876,76.13738339,0.34,0
19-02-2019 6.28,1550000000000.0,1.9614563000000003,8.022155999999999,6.165344,-0.20869446,0.067840576,0.009475708000000001,10.60752876,76.13738339,0.34,0
19-02-2019 6.28,1550000000000.0,0.33100890000000005,4.1243896,12.462082,-0.345047,0.06251526,0.01373291,10.60752876,76.13738339,0.34,0
19-02-2019 6.28,1550000000000.0,1.9853973000000003,10.502547999999999,4.5851593,0.12365723,0.034820557,0.07765198,10.60752876,76.13738339,0.34,0
19-02-2019 6.28,1550000000000.0,0.517746,5.8601837,7.980148299999999,-0.31629944,0.05079651,0.024383545,10.60752876,76.13738339,0.34,0
19-02-2019 6.28,1550000000000.0,2.8568877999999995,7.912017999999999,4.3960266,-0.24385071,-0.023773192999999998,0.03929138,10.60752876,76.13738339,0.34,0
19-02-2019 6.28,1550000000000.0,-0.557251,6.619140600000001,4.8700714000000005,-0.12879944,0.16584778,0.05101013,10.60752876,76.13738339,0.34,0
19-02-2019 6.28,1550000000000.0,3.6278229,9.765121,3.7519836000000004,-0.27581787,-0.1537323,0.12452698,10.60752876,76.13738339,0.34,0
19-02-2019 6.28,1550000000000.0,-1.1965027,8.797867,3.986618,-0.1607666,0.24893188,0.016921997,10.60752876,76.13738339,0.34,0
19-02-2019 6.28,1550000000000.0,3.7858275999999997,8.508179,6.354476999999999,-0.43560790000000005,-0.14733887,0.08616638,10.60752876,76.13738339,0.34,0
19-02-2019 6.28,1550000000000.0,-2.1565703999999997,7.248825,8.760651,-0.16821289,0.2926178,0.021194458,10.60752876,76.13738339,0.34,0
19-02-2019 6.28,1550000000000.0,3.1513672,8.340575999999999,5.547638,0.02671814,-0.24320984,0.17352295,10.60752876,76.13738339,0.34,0
19-02-2019 6.28,1550000000000.0,-1.2180481,6.767593400000001,6.500519000000001,-0.10110474,0.16159058,0.057403564000000004,10.60752876,76.13738339,0.34,0
19-02-2019 6.28,1550000000000.0,3.9079437000000006,6.1403045999999994,9.9457855,-0.028671265,-0.16545105,0.13943481,10.60752876,76.13738339,0.34,0
19-02-2019 6.28,1550000000000.0,0.16819763,5.596817,5.593124400000001,0.12260437,0.26278687,0.03929138,10.60752876,76.13738339,0.34,0
19-02-2019 6.28,1550000000000.0,1.240799,4.308746299999999,12.859528,0.076797485,0.063583374,0.0914917,10.60752876,76.13738339,0.34,0
19-02-2019 6.28,1550000000000.0,4.075531,3.0374298,15.12204,0.046966553,-0.13136292,0.14901733,10.60752876,76.13738339,0.34,0
19-02-2019 6.28,1550000000000.0,-2.4247284,7.643860000000001,2.0856169999999996,0.67652893,0.37677002,0.029708862000000003,10.60752876,76.13738339,0.34,0
19-02-2019 6.28,1550000000000.0,4.087509,3.6287842000000006,13.75975,-0.31095886,-0.49142456,0.22891235,10.60752876,76.13738339,0.34,0
19-02-2019 6.28,1550000000000.0,-2.5204926,5.754837,7.733536,0.34950256,0.102996826,0.09788513,10.60752876,76.13738339,0.34,0
19-02-2019 6.28,1550000000000.0,0.6470336999999999,4.1794586,8.751068,0.033111572,-0.2240448,0.23104858,10.60752876,76.13738339,0.34,0
19-02-2019 6.28,1550000000000.0,-2.1062927000000005,6.0972137,6.658539,0.3835907,-0.100479126,0.18417358,10.60752876,76.13738339,0.34,0
19-02-2019 6.28,1550000000000.0,0.39085388,3.3797913,14.063811999999999,-0.20869446,-0.29328918,0.20974731,10.60752876,76.13738339,0.34,0
19-02-2019 6.28,1550000000000.0,0.26396179999999997,6.868149000000001,6.038437,0.32818604,-0.16438293,0.22998047,10.60752876,76.13738339,0.34,0
19-02-2019 6.28,1550000000000.0,-1.3473358,6.9184265,4.4869995000000005,0.10021973,0.04866028,0.17565918,10.60752876,76.13738339,0.34,0
19-02-2019 6.28,1550000000000.0,1.1091156,4.773224,10.905853,-0.10217285,-0.26452637,0.24702454,10.60752876,76.13738339,0.34,0
19-02-2019 6.28,1550000000000.0,-0.6506195,6.5592957,7.7239685,0.1875763,0.122161865,0.10960388,10.60752876,76.13738339,0.34,0
19-02-2019 6.28,1550000000000.0,2.8281555,6.911239599999999,7.441452000000001,0.09384155,-0.10580444,0.15541077,10.60752876,76.13738339,0.34,0
19-02-2019 6.28,1550000000000.0,-0.23162842,7.0572815,4.757553,0.10235596,0.20100403,0.012664795,10.60752876,76.13738339,0.34,0
19-02-2019 6.28,1550000000000.0,1.5472565,5.4483795,9.189209,-0.06594849,-0.06958008,0.07232666,10.60752876,76.13738339,0.34,0
19-02-2019 6.28,1550000000000.0,1.6502075,5.115585299999999,8.832474000000001,0.00328064,0.065704346,0.014801025,10.60752876,76.13738339,0.34,0
19-02-2019 6.28,1550000000000.0,1.8297729999999999,5.857787999999999,9.459763,0.10128784,0.14027405,0.004150391,10.60752876,76.13738339,0.34,0
19-02-2019 6.28,1550000000000.0,2.6198577999999997,7.3805084,4.2810974,0.20568848,0.08381653,0.10960388,10.60752876,76.13738339,0.34,0
19-02-2019 6.28,1550000000000.0,-0.08798218,2.7094116,17.082901,-0.049972534000000006,0.18501282,0.05847168,10.60752876,76.13738339,0.34,0
19-02-2019 6.28,1550000000000.0,4.8249207,4.959961,13.731017999999999,0.355896,-0.09088135,0.20547485,10.60752876,76.13738339,0.34,0
19-02-2019 6.28,1550000000000.0,-0.5141449,7.279953,2.41362,0.5465698,0.5109863,0.12771606,10.60752876,76.13738339,0.34,0
19-02-2019 6.28,1550000000000.0,3.6038818,6.997436500000001,7.300186,-0.07234192,-0.2006073,0.12452698,10.60752876,76.13738339,0.34,0
19-02-2019 6.28,1550000000000.0,-1.4024048,0.3391571,9.802124000000001,-0.11921692,0.1477356,-0.05230713,10.60752876,76.13738339,0.34,0
19-02-2019 6.28,1550000000000.0,1.8776549999999999,9.468246,4.6282654,0.6051635999999999,-0.058929443,0.14901733,10.60752876,76.13738339,0.34,0
19-02-2019 6.28,1550000000000.0,0.5201416,2.252121,13.800445999999999,-0.0158844,0.03907776,0.102142334,10.60752876,76.13738339,0.34,0
19-02-2019 6.28,1550000000000.0,-0.26275635,7.064468400000001,4.9921722,0.41235352,0.16584778,-0.003311157,10.60752876,76.13738339,0.34,0
19-02-2019 6.28,1550000000000.0,2.7299957000000004,0.42295837,16.888962,-0.08938599,-0.007797241,0.040359497,10.60752876,76.13738339,0.34,0
19-02-2019 6.28,1550000000000.0,2.9933472,10.840117999999999,0.35461426,0.91941833,0.30859375,-0.002243042,10.60752876,76.13738339,0.34,0
19-02-2019 6.28,1550000000000.0,1.0085601999999998,1.4093628,16.110854999999997,-0.20550537,0.4076538,-0.06829834,10.60752876,76.13738339,0.34,0
19-02-2019 6.28,1550000000000.0,6.127365,10.931107,6.6489716,0.5913086,-0.08236694,-0.01928711,10.60752876,76.13738339,0.34,0
19-02-2019 6.28,1550000000000.0,0.11791992,2.9248962000000005,10.259414999999999,-0.38340759999999996,0.7048645,-0.17481995,10.60707003,76.13710629,8.14,0
19-02-2019 6.28,1550000000000.0,6.730697599999999,14.474518,-1.8743896,0.68185425,-0.13136292,0.0914917,10.60707003,76.13710629,8.14,0
19-02-2019 6.28,1550000000000.0,-2.6258392,-1.0973663,17.030228,-0.7860718000000001,0.58343506,-0.15777588,10.60707003,76.13710629,8.14,0
19-02-2019 6.28,1550000000000.0,8.107376,10.971802,5.8085938,0.8065033,-0.32524109999999995,0.20867919999999998,10.60707003,76.13710629,8.14,0
19-02-2019 6.28,1550000000000.0,-2.6282349,4.608017,8.080703999999999,-0.0041656490000000004,0.7485504,-0.037399292,10.60707003,76.13710629,8.14,0
19-02-2019 6.28,1550000000000.0,5.507263,7.1291199999999995,8.672073,0.049087524,-0.36785890000000004,0.07658386,10.60707003,76.13710629,8.14,0
19-02-2019 6.28,1550000000000.0,-3.550003,3.9663696,9.771011,-0.22468567,0.43536377,-0.12687683,10.60707003,76.13710629,8.14,0
19-02-2019 6.28,1550000000000.0,4.9302673,10.241577000000001,3.7783203000000003,0.47093199999999996,-0.24002075,0.17245483,10.60707003,76.13710629,8.14,0
19-02-2019 6.28,1550000000000.0,-2.8748322,2.575348,12.311249,-0.08406067,0.29048157,-0.022491455,10.60707003,76.13710629,8.14,0
19-02-2019 6.28,1550000000000.0,2.5839386,6.662246700000001,8.207596,0.37612915,-0.13775635,0.03717041,10.60707003,76.13710629,8.14,0
19-02-2019 6.28,1550000000000.0,-0.24360657,5.8673706,7.417511,0.21954346,0.21484375,-0.038467407,10.60707003,76.13710629,8.14,0
19-02-2019 6.28,1550000000000.0,0.98461914,8.726044,5.1118927,0.18331909,0.020965576,-0.114105225,10.60707003,76.13710629,8.14,0
19-02-2019 6.28,1550000000000.0,-1.2371979,2.5777283,12.471664,-0.30670166,0.063583374,-0.17163086,10.60707003,76.13710629,8.14,0
19-02-2019 6.28,1550000000000.0,2.8161774,9.839355,5.4877777000000005,0.5305939000000001,-0.024841309,-0.01184082,10.60707003,76.13710629,8.14,0
19-02-2019 6.28,1550000000000.0,-1.9195557,4.900116000000001,7.4198914,-0.03186035,0.2691803,-0.07041931,10.60707003,76.13710629,8.14,0
19-02-2019 6.28,1550000000000.0,1.1019287,7.011794999999999,7.721572999999999,0.06187439,-0.14414978,-0.041656494,10.60707003,76.13710629,8.14,0
19-02-2019 6.28,1550000000000.0,1.0995331,6.552109,8.262665,-0.09259033,0.015640259,-0.050186157,10.60707003,76.13710629,8.14,0
19-02-2019 6.28,1550000000000.0,-0.4806366,9.319809,3.1821593999999997,0.17373657,0.17329407,-0.06935119999999999,10.60707003,76.13710629,8.14,0
19-02-2019 6.28,1550000000000.0,0.5991516,5.5896454,7.9250793,-0.35676575,-0.08023071,-0.06829834,10.60707003,76.13710629,8.14,0
19-02-2019 6.28,1550000000000.0,-0.5500641,6.465912,6.739944500000001,0.10661316,0.15838623,-0.10983276,10.60707003,76.13710629,8.14,0
19-02-2019 6.28,1550000000000.0,0.47225952,8.153824,4.807831,0.13325499999999998,-0.007797241,0.01586914,10.60707003,76.13710629,8.14,0
19-02-2019 6.28,1550000000000.0,0.11791992,4.4356384,12.181961,-0.32055664,0.049728394,-0.05657959,10.60707003,76.13710629,8.14,0
19-02-2019 6.28,1550000000000.0,2.5432433999999997,8.795471000000001,7.087097,0.21847534,-0.003540039,-0.041656494,10.60707003,76.13710629,8.14,0
19-02-2019 6.28,1550000000000.0,-0.9906005999999999,7.663025,4.218857,0.036315917999999996,0.25639343,-0.10131836,10.60707003,76.13710629,8.14,0
19-02-2019 6.28,1550000000000.0,1.9590607,5.74527,8.437439,-0.054229735999999994,-0.1026001,-0.08213806,10.60707003,76.13710629,8.14,0
19-02-2019 6.28,1550000000000.0,-1.091156,5.1898040000000005,8.985702499999999,0.07359314,0.19673157,-0.15777588,10.60707003,76.13710629,8.14,0
19-02-2019 6.28,1550000000000.0,-0.35134888,6.963913000000001,5.183716,0.24617004,-0.088760376,-0.07255554,10.60707003,76.13710629,8.14,0
19-02-2019 6.28,1550000000000.0,0.18495178,4.4236603,7.173294,-0.08087158,0.001800537,-0.12582397,10.60707003,76.13710629,8.14,0
19-02-2019 6.28,1550000000000.0,-0.3034668,4.7085724,9.208374000000001,0.11407471,0.04121399,-0.02142334,10.60707003,76.13710629,8.14,0
19-02-2019 6.28,1550000000000.0,2.4594421000000004,4.9815062999999995,13.649612,-0.12667847,-0.084487915,0.01586914,10.60707003,76.13710629,8.14,0
19-02-2019 6.28,1550000000000.0,-2.66893,5.0174255,8.566727,0.1875763,0.18289185,-0.17907715,10.60707003,76.13710629,8.14,0
19-02-2019 6.28,1550000000000.0,1.3796692,5.673431400000001,10.489258,0.021392822000000002,-0.24641418,-0.06402588,10.60707003,76.13710629,8.14,0
19-02-2019 6.28,1550000000000.0,-1.6490021000000001,2.5298462,7.795791599999999,0.11088562,0.010314941,-0.12901306,10.60707003,76.13710629,8.14,0
19-02-2019 6.28,1550000000000.0,-0.5381012,7.0620728,2.7128906,0.30262756,-0.12284851,-0.11943054,10.60707003,76.13710629,8.14,0
19-02-2019 6.28,1550000000000.0,-0.013763428000000001,1.1196594,15.342316,-0.30351257,-0.17503357,-0.016098022,10.60707003,76.13710629,8.14,0
19-02-2019 6.28,1550000000000.0,1.2312163999999999,8.797867,4.913162000000001,0.54977417,-0.065322876,-0.040603638,10.60707003,76.13710629,8.14,0
19-02-2019 6.28,1550000000000.0,-0.92355347,2.1922759999999997,10.573058999999999,-0.13626099,0.04333496,-0.07041931,10.60707003,76.13710629,8.14,0
19-02-2019 6.28,1550000000000.0,2.3924103,5.048553500000001,9.454971,0.12260437,-0.21551514,0.06593323,10.60707003,76.13710629,8.14,0
19-02-2019 6.28,1550000000000.0,-1.8237762,5.3262787000000005,7.470169,0.09916687,0.09234619,-0.010772705,10.60707003,76.13710629,8.14,0
19-02-2019 6.28,1550000000000.0,1.7076721000000001,5.673431400000001,8.940216,-0.03186035,-0.28263855,0.07019043,10.60707003,76.13710629,8.14,0
19-02-2019 6.28,1550000000000.0,-0.43515015,4.670273,9.141327,-0.06808472,-0.03868103,0.019058228,10.60707003,76.13710629,8.14,0
19-02-2019 6.28,1550000000000.0,1.3772736,8.165802000000001,3.615509,0.29623413,-0.11538696,0.06486511,10.60707003,76.13710629,8.14,0
19-02-2019 6.28,1550000000000.0,-0.720047,2.4532317999999997,11.664825,-0.15223694,0.007125855,0.029708862000000003,10.60707003,76.13710629,8.14,0
19-02-2019 6.28,1550000000000.0,2.4402923999999997,7.761184700000001,6.462219,0.33457947,-0.17077637,0.07872009,10.60707003,76.13710629,8.14,0
19-02-2019 6.28,1550000000000.0,-1.9626465,3.8059540000000003,10.731079,-0.0435791,0.13920593,0.003082275,10.60707003,76.13710629,8.14,0
19-02-2019 6.28,1550000000000.0,2.6078796000000004,7.018982,9.993668,0.15669249999999998,-0.29115295,0.14050293,10.60707003,76.13710629,8.14,0
19-02-2019 6.28,1550000000000.0,-0.7272339,6.731674000000001,5.2220154,-0.014816283999999999,0.06677246,0.059539795,10.60707003,76.13710629,8.14,0
19-02-2019 6.28,1550000000000.0,1.4850006000000002,9.556839,3.3808746,0.06613159,-0.181427,0.10534668,10.60707003,76.13710629,8.14,0
19-02-2019 6.28,1550000000000.0,-0.35853577,2.8363037,15.742142000000001,-0.44093323,-0.06744385,0.02331543,10.60707003,76.13710629,8.14,0
19-02-2019 6.28,1550000000000.0,3.007721,10.624649,1.8725281000000003,0.6424408,-0.04081726,0.09043884,10.60707003,76.13710629,8.14,0
19-02-2019 6.28,1550000000000.0,-1.7064667000000002,3.6311797999999995,9.500458,-0.1607666,0.22763062,-0.045928955,10.60707003,76.13710629,8.14,0
19-02-2019 6.28,1550000000000.0,3.0484161,4.4954834,15.191482999999998,-0.07022095,-0.32737732,0.09895325,10.60707003,76.13710629,8.14,0
19-02-2019 6.28,1550000000000.0,-2.3289642,9.532898,1.6977539000000001,0.31008909999999995,0.17224121,0.045684814000000004,10.60707003,76.13710629,8.14,0
19-02-2019 6.28,1550000000000.0,1.9614563000000003,7.042922999999999,4.0129547,-0.19911194,-0.26239014,0.04675293,10.60707003,76.13710629,8.14,0
19-02-2019 6.28,1550000000000.0,-0.35134888,2.7884216,15.193878,-0.32481384,-0.012054443,-0.04486084,10.60707003,76.13710629,8.14,0
19-02-2019 6.28,1550000000000.0,1.6549988000000002,9.631058,6.019287,0.5540314000000001,-0.020584106,0.045684814000000004,10.60707003,76.13710629,8.14,0
19-02-2019 6.28,1550000000000.0,-0.21008301,2.1348114,9.184417999999999,-0.046783447,0.046539307,-0.038467407,10.60707003,76.13710629,8.14,0
19-02-2019 6.28,1550000000000.0,1.18573,9.616684,2.444748,0.5135498,-0.088760376,0.022247314,10.60707003,76.13710629,8.14,0
19-02-2019 6.28,1550000000000.0,1.8082275,3.1379852,13.616089,-0.27049255,-0.02696228,0.024383545,10.60707003,76.13710629,8.14,0
19-02-2019 6.28,1550000000000.0,1.7914581000000003,9.927933,3.4239807,0.5146179,0.102996826,-0.027816772000000003,10.60707003,76.13710629,8.14,0
19-02-2019 6.28,1550000000000.0,2.0165253,7.165024000000001,9.694397,-0.35464478,0.16691589999999998,-0.07469177,10.60707003,76.13710629,8.14,0
19-02-2019 6.28,1550000000000.0,3.2806550000000003,9.597534,6.043228,0.11407471,0.038009644,0.00201416,10.60707003,76.13710629,8.14,0
19-02-2019 6.28,1550000000000.0,1.8393555,9.939911,2.3609467,-0.20230103,0.31071472,-0.07362366,10.60707003,76.13710629,8.14,0
19-02-2019 6.28,1550000000000.0,3.2615051,4.7875824,8.162094,-0.42601013,-0.039749146,0.008407593,10.60707003,76.13710629,8.14,0
19-02-2019 6.28,1550000000000.0,1.7076721000000001,10.090744,3.3210297,0.01499939,0.24041748,-0.04698181,10.60707003,76.13710629,8.14,0
19-02-2019 6.28,1550000000000.0,0.72843933,3.9974976000000004,8.873184,-0.42175293,0.102996826,-0.060836792,10.60707003,76.13710629,8.14,0
19-02-2019 6.28,1550000000000.0,1.2360077,7.7396392999999994,9.064713000000001,0.10235596,0.032684326,-0.050186157,10.60707003,76.13710629,8.14,0
19-02-2019 6.28,1550000000000.0,0.6494293000000001,3.0637512000000005,14.650391,-0.25131226,0.061447144,-0.0043792729999999995,10.60707003,76.13710629,8.14,0
19-02-2019 6.28,1550000000000.0,1.0612335,8.69014,4.489395,0.45921326,0.04121399,-0.027816772000000003,10.60707003,76.13710629,8.14,0
19-02-2019 6.28,1550000000000.0,0.15621948,4.253677400000001,7.702408,-0.14158629999999997,0.03161621,-0.05870056,10.60707003,76.13710629,8.14,0
19-02-2019 6.28,1550000000000.0,-0.502182,5.7237089999999995,17.267242,0.16520691,-0.07916260000000001,-0.026748657000000002,10.60707003,76.13710629,8.14,0
19-02-2019 6.28,1550000000000.0,3.8648376000000004,4.418869,10.805297999999999,0.36973572,-0.077041626,0.024383545,10.60707003,76.13710629,8.14,0
19-02-2019 6.28,1550000000000.0,-2.269104,8.182556,5.7056427,0.7383270000000001,0.38528442,-0.12261963,10.60707003,76.13710629,8.14,0
19-02-2019 6.28,1550000000000.0,4.216797,3.3127593999999996,13.055847,-0.20657349,-0.46585083,0.029708862000000003,10.60707003,76.13710629,8.14,0
19-02-2019 6.28,1550000000000.0,-2.1900939999999998,9.8992,-1.4314728,0.32073975,0.23614502,-0.07255554,10.60707003,76.13710629,8.14,0
19-02-2019 6.28,1550000000000.0,1.5233153999999998,11.963013,4.815002400000001,-0.26089478,-0.34867859999999995,0.03717041,10.60707003,76.13710629,8.14,0
19-02-2019 6.28,1550000000000.0,2.145813,6.4683075,8.389557,-1.250534,-0.12496948,-0.025680542,10.60707003,76.13710629,8.14,0
19-02-2019 6.28,1550000000000.0,-0.3321991,19.823166,-12.061722,0.6957091999999999,0.34480286,-0.06616211,10.60707003,76.13710629,8.14,0
19-02-2019 6.28,1550000000000.0,3.2998046999999997,-0.14686584,20.003829999999997,-1.6137848,-0.100479126,-0.12794495,10.60707003,76.13710629,8.14,0
19-02-2019 6.28,1550000000000.0,3.5919037000000005,11.232773,1.4966431,0.8704071,0.15625,0.003082275,10.60707003,76.13710629,8.14,0
19-02-2019 6.28,1550000000000.0,1.4538878999999998,5.0126343,10.060699000000001,-0.19911194,0.33947754,-0.012893677,10.60707003,76.13710629,8.14,0
19-02-2019 6.28,1550000000000.0,4.561554,6.5281677,8.851624000000001,0.045898438,-0.13243103,0.028640747,10.60707003,76.13710629,8.14,0
19-02-2019 6.28,1550000000000.0,2.4857788,8.27594,8.458984,-0.16502379999999997,0.45133972,-0.05444336,10.60707003,76.13710629,8.14,0
19-02-2019 6.28,1550000000000.0,5.5000763,11.579941,0.45277405,0.23977661,-0.056793212999999995,0.047821045,10.60707003,76.13710629,8.14,0
19-02-2019 6.28,1550000000000.0,-0.6578064,5.125168,10.893889999999999,-0.5368042,0.44601440000000003,-0.17163086,10.60707003,76.13710629,8.14,0
19-02-2019 6.28,1550000000000.0,6.378753700000001,6.805892999999999,11.636092999999999,0.024597168,-0.33802795,0.15541077,10.60707003,76.13710629,8.14,0
19-02-2019 6.28,1550000000000.0,-2.565979,10.454666,-1.0795135,0.098098755,0.47370909999999994,0.0009460000000000001,10.60707003,76.13710629,8.14,0
19-02-2019 6.28,1550000000000.0,2.80661,5.003067,7.7479095000000004,-0.5453186,-0.4051361,0.02331543,10.60707003,76.13710629,8.14,0
19-02-2019 6.28,1550000000000.0,0.08200073,8.469864,11.430191,-0.23001099,0.059310913,-0.07255554,10.60707003,76.13710629,8.14,0
19-02-2019 6.28,1550000000000.0,1.9351196,6.7436523,5.3369446,0.041641235,-0.009918213,0.07551575,10.60707003,76.13710629,8.14,0
19-02-2019 6.28,1550000000000.0,-1.1127014,6.662246700000001,8.075911999999999,-0.021209717000000003,0.12004089,0.009475708000000001,10.60707003,76.13710629,8.14,0
19-02-2019 6.28,1550000000000.0,4.5280304000000005,4.885742,10.369553,-0.12347412,-0.27624512,0.110672,10.60707003,76.13710629,8.14,0
19-02-2019 6.28,1550000000000.0,-1.1342468,11.352478,2.3058777000000004,0.018203735,0.31285095,-0.002243042,10.60707003,76.13710629,8.14,0
19-02-2019 6.28,1550000000000.0,2.3373413,8.103546000000001,9.088654,-0.43666077,-0.2517395,0.104278564,10.60707003,76.13710629,8.14,0
19-02-2019 6.28,1550000000000.0,1.8441314999999998,10.907166,0.780777,-0.49632263,0.06997681,-0.0011749269999999999,10.60707003,76.13710629,8.14,0
19-02-2019 6.28,1550000000000.0,0.70928955,12.954208,-6.7418059999999995,0.024597168,0.13388062,0.028640747,10.60707003,76.13710629,8.14,0
19-02-2019 6.28,1550000000000.0,3.6110535,6.2073517,12.126892,-1.202591,-0.100479126,-0.00970459,10.60707003,76.13710629,8.14,0
19-02-2019 6.28,1550000000000.0,2.248764,12.779434,1.6929626,0.32713318,0.26704407,-0.013961791999999999,10.60707003,76.13710629,8.14,0
19-02-2019 6.28,1550000000000.0,3.0819397,6.9711,10.144501,-0.7466583000000001,0.28302002,-0.04698181,10.60707003,76.13710629,8.14,0
19-02-2019 6.28,1550000000000.0,3.0579987,9.350937,5.1358337,0.121536255,0.12643433,-0.02355957,10.60707003,76.13710629,8.14,0
19-02-2019 6.28,1550000000000.0,3.0053252999999995,12.360443,-2.358017,-0.31095886,0.36079407,-0.09385681,10.60707003,76.13710629,8.14,0
19-02-2019 6.28,1550000000000.0,1.1546020000000001,8.582397,6.6417847000000005,-0.55596924,0.024169922000000003,-0.034210205,10.60707003,76.13710629,8.14,0
19-02-2019 6.28,1550000000000.0,2.6031036,10.725204,1.958725,-0.6699524,0.009246826,0.01373291,10.60707003,76.13710629,8.14,0
19-02-2019 6.28,1550000000000.0,-0.8948364,9.429947,3.9722443,-0.24278260000000002,0.25213623,-0.07574463,10.60707003,76.13710629,8.14,0
19-02-2019 6.28,1550000000000.0,3.7092133,9.066025,4.8581085,-0.42175293,-0.10685730000000002,-0.025680542,10.60707003,76.13710629,8.14,0
19-02-2019 6.28,1550000000000.0,-1.7950439999999999,8.046097,4.6474150000000005,-0.14372253,0.31710815,-0.08746338,10.60707003,76.13710629,8.14,0
19-02-2019 6.28,1550000000000.0,5.128982499999999,8.089188,8.267441,-0.31416320000000003,-0.17610168,0.045684814000000004,10.60707003,76.13710629,8.14,0
19-02-2019 6.28,1550000000000.0,-0.27233887,8.046097,5.5189056,0.06401062,0.3799591,-0.12901306,10.60707003,76.13710629,8.14,0
19-02-2019 6.28,1550000000000.0,2.3972015,6.470703,5.272293,-0.21401978,0.038009644,-0.09278869999999999,10.60707003,76.13710629,8.14,0
19-02-2019 6.28,1550000000000.0,0.57281494,6.7364654999999996,11.324844,-0.108566284,0.08595276,-0.03526306,10.60707003,76.13710629,8.14,0
19-02-2019 6.28,1550000000000.0,1.2216492,7.509796000000001,5.0113373,0.08956909,0.065704346,-0.016098022,10.60707003,76.13710629,8.14,0
19-02-2019 6.28,1550000000000.0,0.6398468,7.344589,3.2420197,0.012878418,0.08595276,-0.008636475,10.60707003,76.13710629,8.14,0
19-02-2019 6.28,1550000000000.0,2.49057,2.2569122000000004,17.37738,-0.20869446,-0.04295349,0.0009460000000000001,10.60707003,76.13710629,8.14,0
19-02-2019 6.28,1550000000000.0,2.2295990000000003,7.4714813,5.777481,0.62220764,0.20205688,-0.051254272000000003,10.60707003,76.13710629,8.14,0
19-02-2019 6.28,1550000000000.0,-1.115097,2.3478851,12.780517999999999,0.23551941,0.2734375,-0.11836243,10.60707003,76.13710629,8.14,0
19-02-2019 6.28,1550000000000.0,5.0020904999999996,4.054962000000001,12.665588,0.22059631,-0.28157043,0.052078247,10.60707003,76.13710629,8.14,0
19-02-2019 6.28,1550000000000.0,-3.2842407,3.9065247000000003,10.9729,0.5188751,0.4300232,-0.09599304,10.60707003,76.13710629,8.14,0
19-02-2019 6.28,1550000000000.0,5.801758,4.303955,10.671219,0.09277344,-0.4424286,0.113861084,10.60707003,76.13710629,8.14,0
19-02-2019 6.28,1550000000000.0,-4.2490997,4.6271667,9.641724,0.2813263,0.42364502,-0.10983276,10.60707003,76.13710629,8.14,0
19-02-2019 6.28,1550000000000.0,3.7906190000000004,6.2815704000000006,9.936202999999999,0.08424377400000001,-0.46479797,0.10960388,10.60707003,76.13710629,8.14,0
19-02-2019 6.28,1550000000000.0,-2.565979,9.319809,-2.1904297,-0.028671265,0.15838623,-0.039535522000000003,10.60707003,76.13710629,8.14,0
19-02-2019 6.28,1550000000000.0,-0.5500641,5.999054,6.3209534000000005,-0.5155029000000001,-0.27624512,0.042495727999999997,10.60707003,76.13710629,8.14,0
19-02-2019 6.28,1550000000000.0,3.455429,11.788223,-1.3117523000000002,-0.5272217,-0.35614014,0.09681702,10.60707003,76.13710629,8.14,0
19-02-2019 6.28,1550000000000.0,-6.432617,8.668579,3.0001984,-0.43453980000000003,0.4534607,-0.15670776,10.60707003,76.13710629,8.14,0
19-02-2019 6.28,1550000000000.0,8.629303,7.634292599999999,7.843673700000001,-0.7040405,-0.673584,0.12025452,10.60707003,76.13710629,8.14,0
19-02-2019 6.28,1550000000000.0,-5.3672028,10.895187,-1.0914917,0.33778379999999997,0.86039734,-0.23980713,10.60707003,76.13710629,8.14,0
19-02-2019 6.28,1550000000000.0,5.4713593000000005,5.6542816,12.893051,-0.35250854,-0.30180359999999995,0.02758789,10.60707003,76.13710629,8.14,0
19-02-2019 6.28,1550000000000.0,1.1977081,3.7772370000000004,16.220978,0.049087524,0.26490784,-0.04698181,10.60707003,76.13710629,8.14,0
19-02-2019 6.28,1550000000000.0,-0.6314696999999999,7.4834595,0.10560608,0.84484863,0.21058655,-0.059768677,10.60707003,76.13710629,8.14,0
19-02-2019 6.28,1550000000000.0,0.809845,-0.80766296,18.366196,-0.59858704,-0.25813293,-0.025680542,10.60707003,76.13710629,8.14,0
19-02-2019 6.28,1550000000000.0,-2.858078,4.766037,9.610596000000001,0.68292236,0.011383057,-0.041656494,10.60707003,76.13710629,8.14,0
19-02-2019 6.28,1550000000000.0,1.6023253999999998,10.030884,4.623474,0.33990479999999995,-0.28689575,0.028640747,10.60707003,76.13710629,8.14,0
19-02-2019 6.28,1550000000000.0,-1.20607,-2.3112182999999997,16.991913,-0.42282104,-0.057861328,-0.028884887999999997,10.60707003,76.13710629,8.14,0
19-02-2019 6.28,1550000000000.0,3.0460205,9.798645,3.3808746,0.7606963999999999,-0.16438293,0.082977295,10.60707003,76.13710629,8.14,0
19-02-2019 6.28,1550000000000.0,-1.5891418,2.8195495999999998,14.624054000000001,-0.345047,0.18182373,-0.036331177,10.60707003,76.13710629,8.14,0
19-02-2019 6.28,1550000000000.0,3.7499237,11.050811999999999,3.0983582000000003,0.5731963999999999,-0.22616577,0.07232666,10.60707003,76.13710629,8.14,0
19-02-2019 6.28,1550000000000.0,-0.26036072,1.7996216,9.387939,-0.34399414,0.28408813,-0.05657959,10.60707003,76.13710629,8.14,0
19-02-2019 6.28,1550000000000.0,4.341293299999999,9.489792,7.831695599999999,0.27919006,-0.28796387,0.12132263,10.60707003,76.13710629,8.14,0
19-02-2019 6.28,1550000000000.0,-0.93074036,4.454788,10.417435000000001,-0.41003418,0.24786377,-0.015029907,10.60707003,76.13710629,8.14,0
19-02-2019 6.28,1550000000000.0,1.6549988000000002,10.622253,1.4631195,0.39637756,-0.10153198,0.04888916,10.60707003,76.13710629,8.14,0
19-02-2019 6.28,1550000000000.0,1.0420837,5.718933,8.549957000000001,-0.532547,0.019897461,0.021194458,10.60707003,76.13710629,8.14,0
19-02-2019 6.28,1550000000000.0,0.5752106,10.181716999999999,4.0799866,0.17906189,0.011383057,0.012664795,10.60707003,76.13710629,8.14,0
19-02-2019 6.28,1550000000000.0,3.6134489999999997,6.9615173,8.121399,-0.53041077,-0.034423828,0.036102295,10.60707003,76.13710629,8.14,0
19-02-2019 6.28,1550000000000.0,0.8673095999999999,10.358887,-0.61743164,0.23764038,0.24467468,-0.060836792,10.60707003,76.13710629,8.14,0
19-02-2019 6.28,1550000000000.0,4.5400085,4.3446503,12.502792,-0.6252135999999999,0.06890869,-0.032073975,10.60707003,76.13710629,8.14,0
19-02-2019 6.28,1550000000000.0,2.3900146,11.137008999999999,0.8717499,0.43579102,0.30538940000000003,-0.04698181,10.60707003,76.13710629,8.14,0
19-02-2019 6.28,1550000000000.0,1.7364043999999998,2.920105,13.608917000000002,-0.4633026,0.31178284,-0.09278869999999999,10.60707003,76.13710629,8.14,0
19-02-2019 6.28,1550000000000.0,5.811325,4.9527893,13.283295,0.07145691,-0.09941101,0.07977295,10.60707003,76.13710629,8.14,0
19-02-2019 6.28,1550000000000.0,-2.6473846,6.5880279999999996,4.3529205,0.29516602,0.53549194,-0.09918213,10.60707003,76.13710629,8.14,0
19-02-2019 6.28,1550000000000.0,3.455429,1.5554047,14.856292999999999,-0.36315918,-0.404068,0.061676025,10.60707003,76.13710629,8.14,0
19-02-2019 6.28,1550000000000.0,-2.1685486000000003,8.378891000000001,2.8541564999999998,0.46455383,0.18714905,-0.051254272000000003,10.60707003,76.13710629,8.14,0
19-02-2019 6.28,1550000000000.0,0.7978668000000001,3.4013367,10.83403,-0.34399414,-0.2559967,0.057403564000000004,10.60707003,76.13710629,8.14,0
19-02-2019 6.28,1550000000000.0,-0.854126,7.3182526,6.493347,0.10556030000000001,-0.086624146,0.041427612,10.60707003,76.13710629,8.14,0
19-02-2019 6.28,1550000000000.0,0.024536132999999998,5.7165375,7.0918884,-0.038253784,-0.07064819,0.00201416,10.60707003,76.13710629,8.14,0
19-02-2019 6.28,1550000000000.0,-0.09756469999999999,5.187408400000001,6.3448944,-0.044647217,-0.11857605,0.005203247,10.60707003,76.13710629,8.14,0
19-02-2019 6.28,1550000000000.0,-0.9139862,4.4907074,8.514053,-0.110702515,0.006057739,0.005203247,10.60707003,76.13710629,8.14,0
19-02-2019 6.28,1550000000000.0,1.8680724999999998,5.395706,10.65686,-0.061691284000000006,-0.20912170000000002,0.03503418,10.60707003,76.13710629,8.14,0
19-02-2019 6.28,1550000000000.0,-2.530075,6.315078700000001,6.3927917,0.17478943,0.27236938,-0.065093994,10.60707003,76.13710629,8.14,0
19-02-2019 6.28,1550000000000.0,3.122635,4.636749299999999,10.738266000000001,0.062942505,-0.24108887,0.04675293,10.60707003,76.13710629,8.14,0
19-02-2019 6.28,1550000000000.0,-1.9698334,3.9544067000000003,8.10704,0.10021973,0.26704407,-0.12049866,10.60707003,76.13710629,8.14,0
19-02-2019 6.28,1550000000000.0,1.5209198,6.667038000000001,7.6090393,0.27172852,-0.13668823,0.026519775,10.60707003,76.13710629,8.14,0
19-02-2019 6.28,1550000000000.0,-0.13586426,2.9320831000000003,11.612152,-0.22148132,0.059310913,-0.0043792729999999995,10.60707003,76.13710629,8.14,0
19-02-2019 6.28,1550000000000.0,2.1577759,4.691818,11.018386999999999,0.15774536,-0.06958008,0.028640747,10.60707003,76.13710629,8.14,0
19-02-2019 6.28,1550000000000.0,1.4538878999999998,6.003845,3.306656,0.26747129999999997,0.15731812,-0.038467407,10.60707003,76.13710629,8.14,0
19-02-2019 6.28,1550000000000.0,2.1769257,1.3016205,18.095642,-0.06489563,0.1285553,-0.061904907,10.60707003,76.13710629,8.14,0
19-02-2019 6.28,1550000000000.0,4.3101654,7.6510468,7.7287445,0.59025574,0.046539307,-0.038467407,10.60707003,76.13710629,8.14,0
19-02-2019 6.28,1550000000000.0,-0.8373718000000001,3.4444427,9.517211999999999,0.11300659,0.49287415,-0.18547058,10.60707003,76.13710629,8.14,0
19-02-2019 6.28,1550000000000.0,6.050750700000001,1.7517395,15.047820999999999,-0.17674255,-0.34228516,0.13729858,10.60707003,76.13710629,8.14,0
19-02-2019 6.28,1550000000000.0,-2.3433227999999997,10.514511,-0.42111206,0.46134949999999997,0.47796629999999996,-0.07788086,10.60707003,76.13710629,8.14,0
19-02-2019 6.28,1550000000000.0,2.600708,1.2345886000000001,14.549835,-0.71043396,-0.3816986,0.07337952,10.60707003,76.13710629,8.14,0
19-02-2019 6.28,1550000000000.0,-1.4502868999999998,10.698868,-0.59588623,0.26428223,0.06997681,-0.002243042,10.60707003,76.13710629,8.14,0
19-02-2019 6.28,1550000000000.0,-1.28508,4.749283,9.167664,-0.5399933000000001,-0.15054321,0.026519775,10.60707003,76.13710629,8.14,0
19-02-2019 6.28,1550000000000.0,1.3365631000000002,7.746811,3.8285980000000004,-0.20124817,-0.322052,0.071258545,10.60707003,76.13710629,8.14,0
19-02-2019 6.28,1550000000000.0,-2.8006134,6.37973,1.4511566,-0.10324097,0.19993591,-0.07041931,10.60707003,76.13710629,8.14,0
19-02-2019 6.28,1550000000000.0,3.1968536,4.0836945,13.455688,-0.42068479999999997,-0.36997986,0.08404541,10.60707003,76.13710629,8.14,0
19-02-2019 6.28,1550000000000.0,-1.9195557,5.7308959999999995,7.8197327,0.23231506,0.34054565,-0.088531494,10.60707003,76.13710629,8.14,0
19-02-2019 6.28,1550000000000.0,2.0644073,5.2664184999999994,8.95697,0.21740723,-0.12390137,-0.026748657000000002,10.60707003,76.13710629,8.14,0
19-02-2019 6.28,1550000000000.0,-0.502182,0.9855957000000001,13.663970999999998,-0.20336914,0.11364746,0.01373291,10.60707003,76.13710629,8.14,0
19-02-2019 6.28,1550000000000.0,1.664566,8.45311,3.9722443,0.5359191999999999,-0.051467896,0.05633545,10.60707003,76.13710629,8.14,0
19-02-2019 6.28,1550000000000.0,-1.4263458,1.1148833999999999,13.635239000000002,-0.47181702,0.05079651,-0.039535522000000003,10.60707003,76.13710629,8.14,0
19-02-2019 6.28,1550000000000.0,2.4786072,9.341353999999999,3.4742584,0.31967163,-0.18995667,0.03929138,10.60707003,76.13710629,8.14,0
19-02-2019 6.28,1550000000000.0,-2.2547302000000005,4.6487274,7.635375999999999,-0.2864685,0.20526123,-0.03314209,10.60707003,76.13710629,8.14,0
19-02-2019 6.28,1550000000000.0,3.6469727,5.0413666,10.982467999999999,-0.047851562,-0.2602539,0.08404541,10.60707003,76.13710629,8.14,0
19-02-2019 6.28,1550000000000.0,-0.38008118,5.043762,7.405533,0.14497375,0.30645752,-0.027816772000000003,10.60707003,76.13710629,8.14,0
19-02-2019 6.28,1550000000000.0,1.3940277,3.69104,12.095778999999999,0.24084473,0.009246826,0.02331543,10.60707003,76.13710629,8.14,0
19-02-2019 6.28,1550000000000.0,1.5041656,2.0438232,14.023102,0.02671814,0.014572143999999999,-0.000122,10.60707003,76.13710629,8.14,0
19-02-2019 6.28,1550000000000.0,-1.2108611999999999,6.698150599999999,4.9730225,0.57958984,0.17329407,-0.03526306,10.60707003,76.13710629,8.14,0
19-02-2019 6.28,1550000000000.0,1.6047211000000001,3.0948792000000003,12.713486,-0.2949829,-0.21658325,0.0680542,10.60707003,76.13710629,8.14,0
19-02-2019 6.28,1550000000000.0,-0.58358765,6.89209,5.449463,0.13537598,0.018844603999999997,0.017990112,10.60707003,76.13710629,8.14,0
19-02-2019 6.28,1550000000000.0,0.13227844,5.651886,6.979369999999999,-0.10536194,-0.045074462999999995,-0.002243042,10.60707003,76.13710629,8.14,0
19-02-2019 6.28,1550000000000.0,-0.16220093,5.0222169999999995,8.832474000000001,-0.11389160000000002,-0.077041626,-0.022491455,10.60707003,76.13710629,8.14,0
19-02-2019 6.28,1550000000000.0,0.007781982,6.5353546,7.3289184999999994,0.12365723,0.019897461,-0.028884887999999997,10.60707003,76.13710629,8.14,0
19-02-2019 6.28,1550000000000.0,0.2567749,5.1754456,7.8628235,0.020324707,-0.07597351,-0.025680542,10.60707003,76.13710629,8.14,0
19-02-2019 6.28,1550000000000.0,-0.26036072,4.0453796,10.125351,-0.07980347,0.011383057,-0.008636475,10.60707003,76.13710629,8.14,0
19-02-2019 6.28,1550000000000.0,1.18573,5.6973877,8.712769,0.10342407,-0.10685730000000002,0.028640747,10.60707003,76.13710629,8.14,0
19-02-2019 6.28,1550000000000.0,-1.9434967,4.4164886,8.916275,0.018203735,0.14666748,-0.10664368,10.60707003,76.13710629,8.14,0
19-02-2019 6.28,1550000000000.0,2.0165253,6.3940887,7.745514,0.13218689,-0.17823792,0.003082275,10.60707003,76.13710629,8.14,0
19-02-2019 6.28,1550000000000.0,-1.1079101999999998,6.494644,4.678543,0.14283752,0.22337341,-0.09492493,10.60707003,76.13710629,8.14,0
19-02-2019 6.28,1550000000000.0,2.4331055,2.6663208,12.754180999999999,-0.045715332000000004,-0.09088135,-0.018218994,10.60707003,76.13710629,8.14,0
19-02-2019 6.28,1550000000000.0,2.1912993999999997,5.790756,6.8022003,0.29516602,0.15199279999999998,-0.03526306,10.60707003,76.13710629,8.14,0
19-02-2019 6.28,1550000000000.0,-1.5101471000000002,1.766098,14.78685,0.15562439,0.23081970000000002,-0.12582397,10.60707003,76.13710629,8.14,0
19-02-2019 6.28,1550000000000.0,3.249527,1.7014618000000001,18.062119,0.05229187,-0.24108887,0.01159668,10.60707003,76.13710629,8.14,0
19-02-2019 6.28,1550000000000.0,-2.5827484,7.8401947,0.72091675,0.6626892,0.30433655,-0.078948975,10.60707003,76.13710629,8.14,0
19-02-2019 6.28,1550000000000.0,1.3174133,3.1284027,9.773392,-0.42175293,-0.34228516,-0.003311157,10.60707003,76.13710629,8.14,0
19-02-2019 6.28,1550000000000.0,-1.411972,7.5337369999999995,6.462219,-0.073410034,-0.04827881,-0.03526306,10.60707003,76.13710629,8.14,0
19-02-2019 6.28,1550000000000.0,0.5584564000000001,7.277557400000001,8.810928,-0.07234192,-0.13349915,0.014801025,10.60707003,76.13710629,8.14,0
19-02-2019 6.28,1550000000000.0,-1.7208252,5.048553500000001,5.248352,-0.098983765,-0.08769226,-0.06829834,10.60707003,76.13710629,8.14,0
19-02-2019 6.28,1550000000000.0,-0.23162842,6.7436523,4.522918700000001,0.059753417999999996,-0.11538696,0.032913208,10.60707003,76.13710629,8.14,0
19-02-2019 6.28,1550000000000.0,0.07243347,3.3175507000000004,11.9305725,-0.18846129999999997,-0.21871948,0.02758789,10.60707003,76.13710629,8.14,0
19-02-2019 6.28,1550000000000.0,-1.1007385,6.9351807,4.513336,0.3175354,0.07102966,-0.00970459,10.60707003,76.13710629,8.14,0
19-02-2019 6.28,1550000000000.0,2.5504303,3.8562317000000004,9.160477,-0.1096344,-0.19528198,0.07019043,10.60707003,76.13710629,8.14,0
19-02-2019 6.28,1550000000000.0,-1.9291228999999999,5.2257233,4.3912354,0.07359314,0.24148560000000002,-0.11943054,10.60707003,76.13710629,8.14,0
19-02-2019 6.28,1550000000000.0,4.216797,5.2233276,12.134079,-0.21936035,-0.16865539999999998,0.010543823,10.60707003,76.13710629,8.14,0
19-02-2019 6.28,1550000000000.0,-0.44711304,6.090027,8.095061999999999,0.062942505,0.30220032,-0.09811401,10.60707003,76.13710629,8.14,0
19-02-2019 6.28,1550000000000.0,3.7379455999999998,5.031799299999999,10.031967,-0.06489563,0.03375244,-0.027816772000000003,10.60707003,76.13710629,8.14,0
19-02-2019 6.28,1550000000000.0,2.0141296000000004,4.505066,6.086334,0.05441284,0.16903687,-0.041656494,10.60707003,76.13710629,8.14,0
19-02-2019 6.28,1550000000000.0,1.398819,6.3366394,9.993668,0.04270935,0.20100403,-0.05230713,10.60707003,76.13710629,8.14,0
19-02-2019 6.28,1550000000000.0,2.6174622000000003,2.4676056,17.839462,-0.25556946,-0.11431885,0.028640747,10.60707003,76.13710629,8.14,0
19-02-2019 6.28,1550000000000.0,0.21128845,11.194473,-3.875946,0.48265076,0.20526123,-0.03314209,10.60707003,76.13710629,8.14,0
19-02-2019 6.28,1550000000000.0,-0.6937103,5.4316254,4.702483999999999,-0.5378723000000001,-0.11645508,-0.00970459,10.60707003,76.13710629,8.14,0
19-02-2019 6.28,1550000000000.0,2.3134002999999996,6.944763000000001,8.435042999999999,-0.45477295,-0.29008484,0.05633545,10.60707003,76.13710629,8.14,0
19-02-2019 6.28,1550000000000.0,-0.68174744,7.885681,4.6067047,0.06187439,0.19247437,-0.005447388,10.60707003,76.13710629,8.14,0
19-02-2019 6.28,1550000000000.0,1.9542694,5.395706,6.467010500000001,-0.16716003,-0.15054321,0.00201416,10.60707003,76.13710629,8.14,0
19-02-2019 6.28,1550000000000.0,-1.5364685,1.4333038,12.756577,-0.33653259999999996,0.10725403,0.003082275,10.60707003,76.13710629,8.14,0
19-02-2019 6.28,1550000000000.0,1.3030548,9.568802,6.2898407,0.35057068,-0.20167542,0.08937073,10.60707003,76.13710629,8.14,0
19-02-2019 6.28,1550000000000.0,-2.3576813,1.8092041,14.576172,-0.4302826,0.063583374,-0.04272461,10.60707003,76.13710629,8.14,0
19-02-2019 6.28,1550000000000.0,1.5041656,8.845749,0.06491089,0.47946167,-0.27729797,0.082977295,10.60707003,76.13710629,8.14,0
19-02-2019 6.28,1550000000000.0,-2.1613617,0.6336364999999999,11.861145,-0.58047485,0.04121399,-0.007568359,10.60707003,76.13710629,8.14,0
19-02-2019 6.28,1550000000000.0,0.2519989,6.1498870000000005,13.455688,0.33139038,-0.32844543,0.07551575,10.60707003,76.13710629,8.14,0
19-02-2019 6.28,1550000000000.0,0.8553314000000001,1.9313049,11.703125,0.08956909,-0.010986328,0.038238525,10.60707003,76.13710629,8.14,0
19-02-2019 6.28,1550000000000.0,-1.7830810000000001,2.809967,9.792557,0.8874511999999999,0.05293274,-0.024612427000000003,10.60707003,76.13710629,8.14,0
19-02-2019 6.28,1550000000000.0,3.3213654000000004,-1.3056641000000002,14.047042999999999,-0.12347412,-0.3454895,0.14050293,10.60707003,76.13710629,8.14,0
19-02-2019 6.28,1550000000000.0,-3.0855255,1.0789642,19.211334,0.7319336,0.13069153,0.03717041,10.60707003,76.13710629,8.14,0
19-02-2019 6.28,1550000000000.0,4.877594,4.7612457,12.706299000000001,0.5689392,-0.4424286,0.1426239,10.60707003,76.13710629,8.14,0
19-02-2019 6.28,1550000000000.0,-6.918639999999999,0.64801025,15.320770000000001,0.46881104,0.36824036,-0.10557556,10.60707003,76.13710629,8.14,0
19-02-2019 6.28,1550000000000.0,6.558319,7.035736,13.529907000000001,0.38252258,-0.8418884,0.27792358,10.60707003,76.13710629,8.14,0
19-02-2019 6.28,1550000000000.0,-5.407898,11.73555,-5.733841,0.032043457000000004,0.31817627,-0.024612427000000003,10.60707003,76.13710629,8.14,0
19-02-2019 6.28,1550000000000.0,1.075592,14.060332999999998,1.4104462,-0.3333435,-0.63842773,0.20228577,10.60707003,76.13710629,8.14,0
19-02-2019 6.28,1550000000000.0,1.6095123,-0.45332336,12.770935,-1.5498657,-0.42750550000000004,0.18310547,10.60707003,76.13710629,8.14,0
19-02-2019 6.28,1550000000000.0,-0.9355315999999999,25.858948,-21.42305,1.7716217,0.27023315,-0.010772705,10.60707003,76.13710629,8.14,0
19-02-2019 6.28,1550000000000.0,3.7930144999999995,-8.287155,28.196777,-2.1229857999999995,-0.25706482,0.06593323,10.60707003,76.13710629,8.14,0
19-02-2019 6.28,1550000000000.0,4.432266,15.547119,-3.5216064,1.6672363000000001,0.21697998,0.07977295,10.60707003,76.13710629,8.14,0
19-02-2019 6.28,1550000000000.0,0.74279785,-3.400589,17.4971,-0.6635741999999999,0.44174194,-0.04486084,10.60707003,76.13710629,8.14,0
19-02-2019 6.28,1550000000000.0,5.6533050000000005,11.666122,3.409607,0.8853302,-0.18782043,0.12452698,10.60707003,76.13710629,8.14,0
19-02-2019 6.28,1550000000000.0,0.019760132,0.5091399999999999,14.863464000000002,-0.34718323,0.4076538,-0.039535522000000003,10.60707003,76.13710629,8.14,0
19-02-2019 6.28,1550000000000.0,6.0292053,8.797867,3.1965332,0.57107544,-0.23362732,0.1383667,10.60707003,76.13710629,8.14,0
19-02-2019 6.28,1550000000000.0,-2.221222,1.9791869999999998,13.036697,-0.21722412,0.44706726,-0.07148743,10.60707003,76.13710629,8.14,0
19-02-2019 6.28,1550000000000.0,5.229538,5.287979,10.745438,0.16946411,-0.3859558,0.16287231,10.60707003,76.13710629,8.14,0
19-02-2019 6.28,1550000000000.0,-2.9705963,7.042922999999999,5.0951233,0.19822693,0.36079407,-0.018218994,10.60707003,76.13710629,8.14,0
19-02-2019 6.28,1550000000000.0,4.5878906,5.505844000000001,10.257033999999999,-0.20976257,-0.4935608,0.1809845,10.60707003,76.13710629,8.14,0
19-02-2019 6.28,1550000000000.0,-2.6378021,6.255234,5.4901733,0.025665282999999997,0.14880371,0.01586914,10.60707003,76.13710629,8.14,0
19-02-2019 6.28,1550000000000.0,0.70210266,5.6614685,8.753464,-0.11814880000000001,-0.31245422,0.14476013,10.60707003,76.13710629,8.14,0
19-02-2019 6.28,1550000000000.0,0.19213867,8.307053,3.0313263,-0.08406067,-0.17077637,0.118133545,10.60707003,76.13710629,8.14,0
19-02-2019 6.28,1550000000000.0,-2.4031830000000003,8.036514,5.080765,-0.13839722,-0.016311646000000003,0.054214477999999997,10.60707003,76.13710629,8.14,0
19-02-2019 6.28,1550000000000.0,3.7140044999999997,8.390854,4.120682,-0.37275696,-0.4232483,0.21507263,10.60707003,76.13710629,8.14,0
19-02-2019 6.28,1550000000000.0,-2.395996,9.089966,-2.1042327999999997,0.004348755,0.30326843,0.00201416,10.60707003,76.13710629,8.14,0
19-02-2019 6.28,1550000000000.0,4.7578735,3.5210571,15.452438,-0.6422576999999999,-0.3497467,0.12345886,10.60707003,76.13710629,8.14,0
19-02-2019 6.28,1550000000000.0,0.78590393,7.038131699999999,3.0193480999999998,0.38465879999999997,0.37037659999999994,0.043563843,10.60707003,76.13710629,8.14,0
19-02-2019 6.28,1550000000000.0,2.7730865000000002,2.0486145000000002,16.201828,0.04057312,0.08488464,0.06486511,10.60707003,76.13710629,8.14,0
19-02-2019 6.28,1550000000000.0,4.0803223,2.6423798,11.047119,0.22380066,0.010314941,0.17352295,10.60707003,76.13710629,8.14,0
19-02-2019 6.28,1550000000000.0,0.26635742,7.382903999999999,4.276306,0.578537,0.39700317,0.08509827,10.60707003,76.13710629,8.14,0
19-02-2019 6.28,1550000000000.0,2.6102752999999996,1.1172790000000001,16.709395999999998,-0.5644989,-0.27304077,0.14689636,10.60707003,76.13710629,8.14,0
19-02-2019 6.28,1550000000000.0,1.0636292,13.035614,-2.9637604,0.17160034,0.18289185,0.11174011,10.60707003,76.13710629,8.14,0
19-02-2019 6.28,1550000000000.0,0.5464783000000001,8.077209,2.5931854,-0.52827454,-0.022705077999999997,0.09788513,10.60707003,76.13710629,8.14,0
19-02-2019 6.28,1550000000000.0,2.3134002999999996,7.188965,10.881912,-0.65397644,-0.12922668,0.102142334,10.60707003,76.13710629,8.14,0
19-02-2019 6.28,1550000000000.0,2.3373413,6.963913000000001,6.139007599999999,0.065078735,0.12750244,0.18417358,10.60707003,76.13710629,8.14,0
19-02-2019 6.28,1550000000000.0,-0.2460022,8.819412,3.3760986000000006,0.12792969,0.16371155,0.07337952,10.60707003,76.13710629,8.14,0
19-02-2019 6.28,1550000000000.0,0.5392914000000001,-0.47966003,18.789963,-0.7381439000000001,-0.14840698,0.15115356,10.60707003,76.13710629,8.14,0
19-02-2019 6.28,1550000000000.0,-0.88764954,13.332489,0.48629759999999994,0.57958984,0.007125855,0.1809845,10.60707003,76.13710629,8.14,0
19-02-2019 6.28,1550000000000.0,-0.63386536,3.77005,12.402237,-0.60816956,-0.11112976,0.0872345,10.60707003,76.13710629,8.14,0
19-02-2019 6.28,1550000000000.0,0.5847931,8.21608,2.6697998,0.10021973,-0.13775635,0.1341095,10.60707003,76.13710629,8.14,0
19-02-2019 6.28,1550000000000.0,-0.39923096,9.394028,2.9427338,-0.02973938,0.027359009,0.092559814,10.60707003,76.13710629,8.14,0
19-02-2019 6.28,1550000000000.0,0.383667,3.8730010000000004,11.042328,-0.55703735,-0.22511292,0.092559814,10.60707003,76.13710629,8.14,0
19-02-2019 6.28,1550000000000.0,-0.4303589,12.010895,-0.19606018,0.50289917,0.17010498,0.071258545,10.60707003,76.13710629,8.14,0
19-02-2019 6.28,1550000000000.0,1.7052764999999999,0.30563354,16.223373000000002,-0.59539795,-0.12071228,0.12664795,10.60707003,76.13710629,8.14,0
19-02-2019 6.28,1550000000000.0,0.68055725,11.311783,0.014633179,0.7606963999999999,0.23295593,0.057403564000000004,10.60707003,76.13710629,8.14,0
19-02-2019 6.28,1550000000000.0,3.2926330000000004,1.9313049,15.423720999999999,-0.47288513,0.09660339,0.08616638,10.60707003,76.13710629,8.14,0
19-02-2019 6.28,1550000000000.0,3.000534,10.160171499999999,3.6250915999999997,0.62753296,0.23402405,-0.020355225,10.60707003,76.13710629,8.14,0
19-02-2019 6.28,1550000000000.0,1.2264403999999998,1.9863738999999998,14.489975,-0.32481384,0.40979004,-0.04486084,10.60707003,76.13710629,8.14,0
19-02-2019 6.28,1550000000000.0,5.4617767,10.449875,8.794174,0.52526855,-0.077041626,0.069122314,10.60707003,76.13710629,8.14,0
19-02-2019 6.28,1550000000000.0,-1.9817963,6.372543299999999,4.3385620000000005,-0.09365845,0.566391,-0.10450745,10.60707003,76.13710629,8.14,0
19-02-2019 6.28,1550000000000.0,4.118622,8.017364500000001,9.464554,-0.10217285,-0.34867859999999995,0.15327454,10.60707003,76.13710629,8.14,0
19-02-2019 6.28,1550000000000.0,-1.1869201999999999,9.276717999999999,0.37376404,-0.2619629,0.21804810000000002,-0.003311157,10.60707003,76.13710629,8.14,0
19-02-2019 6.28,1550000000000.0,-0.42317200000000005,9.832169,3.0241394,-0.12774658,-0.030166626000000002,-0.018218994,10.60707003,76.13710629,8.14,0
19-02-2019 6.28,1550000000000.0,2.217636,4.1794586,10.781357,-0.59965515,-0.20593262,0.071258545,10.60707003,76.13710629,8.14,0
19-02-2019 6.28,1550000000000.0,0.17298889,13.895126000000001,-3.5216064,0.68185425,0.29048157,-0.025680542,10.60707003,76.13710629,8.14,0
19-02-2019 6.28,1550000000000.0,3.7164001000000004,-0.058273315,19.630325,-0.6848755,0.003921509,-0.005447388,10.60707003,76.13710629,8.14,0
19-02-2019 6.28,1550000000000.0,3.0747527999999997,9.532898,7.405533,0.7170105,0.20845032,0.020126343,10.60707003,76.13710629,8.14,0
19-02-2019 6.28,1550000000000.0,-0.7511749,3.5713348,5.6242523,0.065078735,0.35758972,-0.08746338,10.60707003,76.13710629,8.14,0
19-02-2019 6.28,1550000000000.0,3.0292664,6.1427,9.050353999999999,0.055480957000000004,-0.18782043,0.057403564000000004,10.60707003,76.13710629,8.14,0
19-02-2019 6.28,1550000000000.0,0.14186096,4.201004,10.977675999999999,0.02885437,0.1477356,0.020126343,10.60707003,76.13710629,8.14,0
19-02-2019 6.28,1550000000000.0,2.8018188,8.603943,2.207718,0.3835907,-0.033355712999999995,0.054214477999999997,10.60707003,76.13710629,8.14,0
19-02-2019 6.28,1550000000000.0,0.17059326,-0.80526733,20.882492000000003,-0.22254944,0.14880371,-0.017166138,10.60707003,76.13710629,8.14,0
19-02-2019 6.28,1550000000000.0,4.372421299999999,7.710907000000001,7.7910004,0.8352661,-0.12817383,0.053146362,10.60707003,76.13710629,8.14,0
19-02-2019 6.28,1550000000000.0,-3.39917,3.157135,6.725586,0.39956665,0.41085815,-0.08746338,10.60707003,76.13710629,8.14,0
19-02-2019 6.28,1550000000000.0,4.822525,3.2193756000000002,12.993607,-0.08299255,-0.51486206,0.18843079,10.60707003,76.13710629,8.14,0
19-02-2019 6.28,1550000000000.0,-3.6385803,6.286346400000001,6.627411,0.3644104,0.22016907,0.041427612,10.60707003,76.13710629,8.14,0
19-02-2019 6.28,1550000000000.0,3.771469,5.050949,11.332031,-0.1565094,-0.5010071,0.22572327,10.60707003,76.13710629,8.14,0
19-02-2019 6.28,1550000000000.0,-3.2818449999999997,6.482681299999999,6.146179,0.19822693,0.12536621,0.053146362,10.60707003,76.13710629,8.14,0
19-02-2019 6.28,1550000000000.0,0.7044983,3.169098,10.630524000000001,-0.27474976,-0.3816986,0.22891235,10.60707003,76.13710629,8.14,0
19-02-2019 6.28,1550000000000.0,-1.4622498,10.581558,-1.5870819,0.20143127,-0.16970825,0.19482422,10.60707003,76.13710629,8.14,0
19-02-2019 6.28,1550000000000.0,-2.4366912999999997,4.390152,8.425461,-0.57728577,-0.17503357,0.14582825,10.60707003,76.13710629,8.14,0
19-02-2019 6.28,1550000000000.0,3.359665,7.394867,6.9649963,-0.28433228,-0.51379395,0.33757020000000004,10.60707003,76.13710629,8.14,0
19-02-2019 6.28,1550000000000.0,-2.3145905,9.434723,2.2556,0.08212280000000001,0.2691803,0.07765198,10.60707003,76.13710629,8.14,0
19-02-2019 6.28,1550000000000.0,5.128982499999999,4.866592400000001,13.058243,-0.47288513,-0.28050232,0.17245483,10.60707003,76.13710629,8.14,0
19-02-2019 6.28,1550000000000.0,-0.52612305,9.121094,2.128708,0.3878479,0.3330841,0.09576416,10.60707003,76.13710629,8.14,0
19-02-2019 6.28,1550000000000.0,3.2064362,5.556122,9.421448,-0.17141724,-0.07916260000000001,0.1618042,10.60707003,76.13710629,8.14,0
19-02-2019 6.28,1550000000000.0,1.2024841,4.591263,10.87233,-0.02973938,0.077423096,0.18417358,10.60707003,76.13710629,8.14,0
19-02-2019 6.28,1550000000000.0,1.537674,8.55127,3.8094482000000003,0.19396973,-0.007797241,0.21826172,10.60707003,76.13710629,8.14,0
19-02-2019 6.28,1550000000000.0,0.29748535,4.6606903,11.353577,-0.22361755,-0.02696228,0.12878418,10.60707003,76.13710629,8.14,0
19-02-2019 6.28,1550000000000.0,1.6478118999999998,9.183334,4.4271392999999994,0.2855835,-0.08023071,0.17991638,10.60707003,76.13710629,8.14,0
19-02-2019 6.28,1550000000000.0,0.10594177,5.156296,9.948181,-0.2949829,-0.035491943,0.21719360000000001,10.60707003,76.13710629,8.14,0
19-02-2019 6.28,1550000000000.0,2.5025482000000006,7.160232499999999,11.925781,0.16627502,-0.12284851,0.21719360000000001,10.60707003,76.13710629,8.14,0
19-02-2019 6.28,1550000000000.0,-0.14784239999999998,5.185028,9.962539999999999,0.057617188,0.091278076,0.15861511,10.60707003,76.13710629,8.14,0
19-02-2019 6.28,1550000000000.0,0.3501587,5.070099,8.815719999999999,0.27600098,-0.11325073,0.19056702,10.60707003,76.13710629,8.14,0
19-02-2019 6.28,1550000000000.0,1.4275513000000002,7.042922999999999,6.2611084,0.28877258,-0.074905396,0.1894989,10.60707003,76.13710629,8.14,0
19-02-2019 6.28,1550000000000.0,0.3932495,4.7947693,7.604247999999999,0.01713562,-0.028030396000000003,0.20974731,10.60707003,76.13710629,8.14,0
19-02-2019 6.28,1550000000000.0,2.82576,8.105942,8.492508,0.10128784,-0.16651917,0.2832489,10.60707003,76.13710629,8.14,0
19-02-2019 6.28,1550000000000.0,1.1474303999999997,5.386139,12.234634,-0.16288757,0.08488464,0.20121765,10.60707003,76.13710629,8.14,0
19-02-2019 6.28,1550000000000.0,1.5424652,7.6031647,7.6449585,0.1875763,0.03375244,0.23104858,10.60707003,76.13710629,8.14,0
19-02-2019 6.28,1550000000000.0,1.7411804,8.697311000000001,4.633041400000001,0.13430786,0.12322998,0.15434265,10.60707003,76.13710629,8.14,0
19-02-2019 6.28,1550000000000.0,1.5233153999999998,5.410080000000001,8.605025999999999,-0.26515198,-0.023773192999999998,0.22679138,10.60707003,76.13710629,8.14,0
19-02-2019 6.28,1550000000000.0,2.7371673999999997,7.744415299999999,7.671295,-0.057434082000000004,0.011383057,0.22251892,10.60707003,76.13710629,8.14,0
19-02-2019 6.28,1550000000000.0,0.6470336999999999,8.235229499999999,3.1582183999999995,0.12365723,0.22337341,0.13304138,10.60707003,76.13710629,8.14,0
19-02-2019 6.28,1550000000000.0,2.593521,4.773224,9.917053,-0.34825134,0.034820557,0.16926575,10.60707003,76.13710629,8.14,0
19-02-2019 6.28,1550000000000.0,3.7571106,9.824982,4.520523000000001,0.38465879999999997,0.14559937,0.1426239,10.60707003,76.13710629,8.14,0
19-02-2019 6.28,1550000000000.0,1.6956939999999998,2.3981627999999997,12.909805,-0.122421265,0.36824036,0.07872009,10.60707003,76.13710629,8.14,0
19-02-2019 6.28,1550000000000.0,5.9884949999999995,7.478667999999999,8.360825,0.41021729999999995,0.04866028,0.2363739,10.60707003,76.13710629,8.14,0
19-02-2019 6.28,1550000000000.0,-0.27233887,2.3407134999999997,16.862625,0.262146,0.5493469,-0.012893677,10.60707003,76.13710629,8.14,0
19-02-2019 6.28,1550000000000.0,5.617401,4.088470500000001,15.701447,0.31008909999999995,-0.13989258,0.15647888,10.60707003,76.13710629,8.14,0
19-02-2019 6.28,1550000000000.0,-2.8604736,7.981445299999999,3.3234253,0.7638855,0.6004791,-0.078948975,10.60707003,76.13710629,8.14,0
19-02-2019 6.28,1550000000000.0,2.035675,0.26493835,17.193023999999998,-0.52401733,-0.36572266,0.21612549,10.60619618,76.13658982,11.38,0
19-02-2019 6.28,1550000000000.0,0.10354614,13.253479,-2.7003937000000002,0.6296691999999999,-0.037628174,0.19270325,10.60619618,76.13658982,11.38,0
19-02-2019 6.28,1550000000000.0,-4.1437683,4.320709,6.251526,-0.5080414000000001,0.16796875,-0.06935119999999999,10.60619618,76.13658982,11.38,0
19-02-2019 6.28,1550000000000.0,5.0260315,10.236786,3.9985809999999997,-0.2864685,-0.44029236,0.21507263,10.60619618,76.13658982,11.38,0
19-02-2019 6.28,1550000000000.0,-2.6785126,12.463394000000001,-1.8097534,0.22380066,0.5738373000000001,-0.10983276,10.60619618,76.13658982,11.38,0
19-02-2019 6.28,1550000000000.0,6.3619995000000005,1.8068084999999998,16.153945999999998,-0.6667633000000001,-0.20274353,0.09788513,10.60619618,76.13658982,11.38,0
19-02-2019 6.28,1550000000000.0,2.5719757000000003,12.312561,3.3353882000000006,0.77986145,0.46199036,-0.007568359,10.60619618,76.13658982,11.38,0
19-02-2019 6.28,1550000000000.0,1.3916321000000003,-0.38150024,17.700607,-0.25556946,0.36611938,-0.061904907,10.60619618,76.13658982,11.38,0
19-02-2019 6.28,1550000000000.0,4.980544999999999,8.618300999999999,7.549179,0.7191466999999999,0.05718994,0.18203735,10.60619618,76.13658982,11.38,0
19-02-2019 6.28,1550000000000.0,-0.8086395000000001,3.7844086000000003,10.934586,0.33885193,0.5056609999999999,-0.003311157,10.60619618,76.13658982,11.38,0
19-02-2019 6.28,1550000000000.0,4.434662,4.536194,14.243378,0.012878418,-0.2506714,0.21612549,10.60619618,76.13658982,11.38,0
19-02-2019 6.28,1550000000000.0,-3.2698822,8.378891000000001,3.8812714,0.36654663,0.36079407,0.055282593,10.60619618,76.13658982,11.38,0
19-02-2019 6.28,1550000000000.0,0.45310974,3.2122040000000003,13.786087,-0.3961792,-0.27410890000000004,0.15861511,10.60619618,76.13658982,11.38,0
19-02-2019 6.28,1550000000000.0,-0.131073,11.089127000000001,-1.6421508999999999,0.18225098,-0.1026001,0.16499329,10.60619618,76.13658982,11.38,0
19-02-2019 6.28,1550000000000.0,-3.4805602999999996,7.684570299999999,0.08406067,-0.1927185,0.20205688,0.033966064,10.60619618,76.13658982,11.38,0
19-02-2019 6.28,1550000000000.0,6.6157837,6.810683999999999,13.058243,-0.57728577,-0.47224426,0.27578735,10.60619618,76.13658982,11.38,0
19-02-2019 6.28,1550000000000.0,-1.5604248,11.218414,1.7911377,0.49543762,0.6729126,-0.123687744,10.60619618,76.13658982,11.38,0
19-02-2019 6.28,1550000000000.0,3.6110535,4.947998,6.517288,-0.28007507,0.11897278,0.014801025,10.60619618,76.13658982,11.38,0
19-02-2019 6.28,1550000000000.0,3.0699615000000002,7.454727,11.784531,-0.05317688,0.16691589999999998,0.07232666,10.60619618,76.13658982,11.38,0
19-02-2019 6.28,1550000000000.0,1.075592,6.552109,4.6737519999999995,0.03843689,0.37783813,-0.038467407,10.60619618,76.13658982,11.38,0
19-02-2019 6.28,1550000000000.0,2.794632,6.264801,8.880355999999999,-0.23213196,0.042266846,0.14157104,10.60619618,76.13658982,11.38,0
19-02-2019 6.28,1550000000000.0,2.9335022,7.2967070000000005,8.710372999999999,-0.43879700000000005,0.27236938,0.0009460000000000001,10.60619618,76.13658982,11.38,0
19-02-2019 6.28,1550000000000.0,2.181717,13.591064000000001,-4.689972,0.43684387,0.30966187,0.024383545,10.60619618,76.13658982,11.38,0
19-02-2019 6.28,1550000000000.0,3.3500824000000002,4.8426514,11.758194,-0.77648926,0.24148560000000002,0.008407593,10.60619618,76.13658982,11.38,0
19-02-2019 6.28,1550000000000.0,1.2336121000000002,7.153061,6.306595,0.16201782,0.30326843,0.032913208,10.60619618,76.13658982,11.38,0
19-02-2019 6.28,1550000000000.0,3.6541595,9.089966,5.2339934999999995,-0.09471130000000001,0.14987183,0.07337952,10.60619618,76.13658982,11.38,0
19-02-2019 6.28,1550000000000.0,-1.4861908000000001,3.6958312999999996,9.466934,-0.30458070000000004,0.37356567,-0.053375244,10.60619618,76.13658982,11.38,0
19-02-2019 6.28,1550000000000.0,3.7666779000000004,10.2391815,2.947525,0.16520691,-0.009918213,0.09043884,10.60619618,76.13658982,11.38,0
19-02-2019 6.28,1550000000000.0,-0.5381012,5.534576400000001,9.033585,-0.27474976,0.33203125,0.030776977999999997,10.60619618,76.13658982,11.38,0
19-02-2019 6.28,1550000000000.0,3.3357239,5.939193700000001,7.8771973,0.016067505,-0.028030396000000003,0.1149292,10.60619618,76.13658982,11.38,0
19-02-2019 6.28,1550000000000.0,0.3214264,8.189743,3.6035461000000004,0.24510193,0.34054565,-0.03314209,10.60619618,76.13658982,11.38,0
19-02-2019 6.28,1550000000000.0,1.5927428999999997,1.9097595,15.722992000000001,-0.21296692,0.098739624,0.006271362,10.60619618,76.13658982,11.38,0
19-02-2019 6.28,1550000000000.0,2.7323914,8.290298,8.183655,0.5359191999999999,0.15838623,0.016921997,10.60619618,76.13658982,11.38,0
19-02-2019 6.28,1550000000000.0,-0.93792725,3.023056,7.824524,0.15562439,0.39060974,-0.041656494,10.60619618,76.13658982,11.38,0
19-02-2019 6.28,1550000000000.0,3.7954102,5.7380830000000005,11.856354,0.074661255,-0.16119385,0.1149292,10.60619618,76.13658982,11.38,0
19-02-2019 6.28,1550000000000.0,-2.5324707,5.436416599999999,10.259414999999999,0.17478943,0.32882690000000003,-0.03314209,10.60619618,76.13658982,11.38,0
19-02-2019 6.28,1550000000000.0,2.7850647,4.93602,11.32724,0.037368774,-0.1494751,0.10960388,10.60619618,76.13658982,11.38,0
19-02-2019 6.28,1550000000000.0,-2.506134,7.557678,5.0041504,0.30262756,0.26065063,-0.0011749269999999999,10.60619618,76.13658982,11.38,0
19-02-2019 6.28,1550000000000.0,1.5592194,5.328674299999999,11.940155,-0.17567444,-0.20912170000000002,0.110672,10.60619618,76.13658982,11.38,0
19-02-2019 6.28,1550000000000.0,-0.19093323,9.59993,0.646698,0.09063721,0.020965576,0.06486511,10.60619618,76.13658982,11.38,0
19-02-2019 6.28,1550000000000.0,-2.4917602999999997,7.0213776,2.2292633,-0.18846129999999997,0.14987183,-0.04698181,10.60619618,76.13658982,11.38,0
19-02-2019 6.28,1550000000000.0,3.6134489999999997,8.951096000000001,7.4390564,-0.4707489,-0.28689575,0.08830261,10.60619618,76.13658982,11.38,0
19-02-2019 6.28,1550000000000.0,-2.9011687999999998,10.469025,0.21813965,0.16307068,0.53549194,-0.11729431,10.60619618,76.13658982,11.38,0
19-02-2019 6.28,1550000000000.0,6.3236847,5.0054625999999995,10.137314,-0.57089233,-0.15693665,0.07444763,10.60619618,76.13658982,11.38,0
19-02-2019 6.28,1550000000000.0,-0.2460022,10.078766,1.3793335,0.34204102,0.5994109999999999,-0.14819336,10.60619618,76.13658982,11.38,0
19-02-2019 6.28,1550000000000.0,4.2072144,2.4364777,15.459625,-0.48567200000000005,0.15092468,-0.06829834,10.60619618,76.13658982,11.38,0
19-02-2019 6.28,1550000000000.0,2.64859,9.951874,2.2627869,0.6520385999999999,0.4300232,-0.06616211,10.60619618,76.13658982,11.38,0
19-02-2019 6.28,1550000000000.0,2.0021515,0.42056274,15.509903,-0.13626099,0.41192627,-0.11090088,10.60619618,76.13658982,11.38,0
19-02-2019 6.28,1550000000000.0,5.5599365,6.1091766,11.145278999999999,0.4304657,0.06251526,0.030776977999999997,10.60619618,76.13658982,11.38,0
19-02-2019 6.28,1550000000000.0,-2.2260132,2.7764587000000005,11.34639,0.36334229999999995,0.6686554,-0.16203308,10.60619618,76.13658982,11.38,0
19-02-2019 6.28,1550000000000.0,5.921463,3.8011779999999997,14.523499,0.11621094,-0.28582764,0.09788513,10.60619618,76.13658982,11.38,0
19-02-2019 6.28,1550000000000.0,-3.99292,6.4515533,4.999358999999999,0.5604248000000001,0.56851196,-0.10983276,10.60619618,76.13658982,11.38,0
19-02-2019 6.28,1550000000000.0,3.833725,4.7564545,10.956131,-0.11921692,-0.36891174,0.10002136,10.60619618,76.13658982,11.38,0
19-02-2019 6.28,1550000000000.0,-2.565979,6.671814,8.150131,0.13858032,0.21804810000000002,-0.026748657000000002,10.60619618,76.13658982,11.38,0
19-02-2019 6.28,1550000000000.0,1.65979,5.4483795,9.033585,0.049087524,-0.14094543,0.010543823,10.60619618,76.13658982,11.38,0
19-02-2019 6.28,1550000000000.0,-2.4965515,7.8665313999999995,2.839798,0.23658752,0.16264343,-0.040603638,10.60619618,76.13658982,11.38,0
19-02-2019 6.28,1550000000000.0,0.7188568000000001,5.261642500000001,11.415817,-0.29605103,-0.18569946,0.016921997,10.60619618,76.13658982,11.38,0
19-02-2019 6.28,1550000000000.0,-0.46386720000000004,8.251999,3.6083220999999996,0.01713562,0.0028533940000000004,0.006271362,10.60619618,76.13658982,11.38,0
19-02-2019 6.28,1550000000000.0,-0.31782532,6.602386500000001,2.2963104,-0.12561035,0.08274841,-0.061904907,10.60619618,76.13658982,11.38,0
19-02-2019 6.28,1550000000000.0,1.5305023000000002,6.5066223,8.885147,-0.42601013,-0.08981323,-0.04272461,10.60619618,76.13658982,11.38,0
19-02-2019 6.28,1550000000000.0,-1.0600281,8.429169,6.921905499999999,0.03843689,0.27236938,-0.09385681,10.60619618,76.13658982,11.38,0
19-02-2019 6.28,1550000000000.0,1.5113372999999999,7.435577400000001,2.844574,-0.25024414,0.018844603999999997,-0.039535522000000003,10.60619618,76.13658982,11.38,0
19-02-2019 6.28,1550000000000.0,-0.6434326,4.114807,10.395889,-0.3887329,0.1477356,-0.04486084,10.60619618,76.13658982,11.38,0
19-02-2019 6.28,1550000000000.0,1.5879517,9.523315,2.1215363,-0.009490967,-0.074905396,-0.012893677,10.60619618,76.13658982,11.38,0
19-02-2019 6.28,1550000000000.0,-3.8540650000000003,4.8402557,6.241958599999999,-0.33546448,0.34161377,-0.12475586,10.60619618,76.13658982,11.38,0
19-02-2019 6.28,1550000000000.0,4.810547,9.1163025,8.432648,-0.15969849,-0.31777954,0.06272888,10.60619618,76.13658982,11.38,0
19-02-2019 6.28,1550000000000.0,-2.992157,5.6470947,6.2347717000000005,-0.07980347,0.5536041,-0.18333435,10.60619618,76.13658982,11.38,0
19-02-2019 6.28,1550000000000.0,3.5607758,7.1793976,7.096679700000001,0.041641235,-0.110061646,0.00201416,10.60619618,76.13658982,11.38,0
19-02-2019 6.28,1550000000000.0,-0.39923096,2.4484557999999996,12.028732000000002,-0.29605103,0.31710815,-0.114105225,10.60619618,76.13658982,11.38,0
19-02-2019 6.28,1550000000000.0,3.2471466,7.974273700000001,7.546798700000001,0.15348816,0.112579346,-0.055511475,10.60619618,76.13658982,11.38,0
19-02-2019 6.28,1550000000000.0,0.022155762000000002,3.703003,11.415817,-0.29072570000000003,0.24681091,-0.13008118,10.60619618,76.13658982,11.38,0
19-02-2019 6.28,1550000000000.0,3.5128937000000007,11.299805000000001,0.95555115,0.10128784,0.16903687,-0.05444336,10.60619618,76.13658982,11.38,0
19-02-2019 6.28,1550000000000.0,0.49620056,6.228897,6.919510000000001,-0.42282104,0.23509216,-0.11303711,10.60619618,76.13658982,11.38,0
19-02-2019 6.28,1550000000000.0,2.849701,6.724487299999999,7.376800500000001,-0.31309509999999996,0.09767151,-0.11943054,10.60619618,76.13658982,11.38,0
19-02-2019 6.28,1550000000000.0,-0.38008118,7.849761999999999,4.6641693,0.041641235,0.30326843,-0.11729431,10.60619618,76.13658982,11.38,0
19-02-2019 6.28,1550000000000.0,2.8688507000000003,4.3183136,12.304077000000001,-0.35890198,0.01777649,-0.061904907,10.60619618,76.13658982,11.38,0
19-02-2019 6.28,1550000000000.0,1.4371185,6.894485499999999,4.9418945,0.26853943,0.2926178,-0.08320618,10.60619618,76.13658982,11.38,0
19-02-2019 6.28,1550000000000.0,0.5009918,5.366974,9.124573,0.039505005,0.2542572,-0.09173584,10.60619618,76.13658982,11.38,0
19-02-2019 6.28,1550000000000.0,2.6414032000000005,2.833908,14.772491,-0.19804382,-0.018447876000000002,-0.061904907,10.60619618,76.13658982,11.38,0
19-02-2019 6.28,1550000000000.0,-1.0791779,6.9303894,6.244339,0.309021,0.30326843,-0.12794495,10.60619618,76.13658982,11.38,0
19-02-2019 6.28,1550000000000.0,1.6382294,4.3135376,7.8508606,-0.08831787,-0.06958008,-0.041656494,10.60619618,76.13658982,11.38,0
19-02-2019 6.28,1550000000000.0,0.29269409999999996,7.3134613,4.2499695,0.05229187,0.102996826,-0.05230713,10.60619618,76.13658982,11.38,0
19-02-2019 6.28,1550000000000.0,0.017364502,4.9527893,11.334412,-0.2992401,-0.005661011,-0.09918213,10.60619618,76.13658982,11.38,0
19-02-2019 6.28,1550000000000.0,0.67337036,7.758789,5.5380554,-0.0627594,-0.007797241,-0.10450745,10.60619618,76.13658982,11.38,0
19-02-2019 6.28,1550000000000.0,-1.577179,6.1762238,6.4310913,-0.08406067,0.12962341,-0.1354065,10.60619618,76.13658982,11.38,0
19-02-2019 6.28,1550000000000.0,1.5927428999999997,6.3653564000000005,6.924301,-0.08619689999999999,-0.14094543,-0.040603638,10.60619618,76.13658982,11.38,0
19-02-2019 6.28,1550000000000.0,-0.8565216,5.6399230000000005,8.820511,-0.07980347,0.1477356,-0.09918213,10.60619618,76.13658982,11.38,0
19-02-2019 6.28,1550000000000.0,0.62309265,5.876938,10.233077999999999,-0.024414062,-0.11538696,-0.08001709,10.60619618,76.13658982,11.38,0
19-02-2019 6.28,1550000000000.0,-0.45909120000000003,4.955185,8.849243,0.08744812,0.12536621,-0.12687683,10.60619618,76.13658982,11.38,0
19-02-2019 6.28,1550000000000.0,0.031723022000000003,7.5337369999999995,3.8788757000000005,0.22805786,0.0028533940000000004,-0.06935119999999999,10.60619618,76.13658982,11.38,0
19-02-2019 6.28,1550000000000.0,-1.0265045,2.7118073,15.61525,-0.46969604,-0.047210693,-0.029937744,10.60619618,76.13658982,11.38,0
19-02-2019 6.28,1550000000000.0,1.0205383,10.114685,0.7400818,0.14602661,-0.17398071,0.007339478000000001,10.60619618,76.13658982,11.38,0
19-02-2019 6.28,1550000000000.0,-3.1525574,5.7356873,5.0400542999999995,-0.35144043,0.16691589999999998,-0.111968994,10.60619618,76.13658982,11.38,0
19-02-2019 6.28,1550000000000.0,3.8002013999999997,7.813858,8.059142999999999,-0.41856384,-0.35614014,0.032913208,10.60619618,76.13658982,11.38,0
19-02-2019 6.28,1550000000000.0,-3.7798462,10.607895,0.38095093,0.21954346,0.46838379999999996,-0.20677185,10.60619618,76.13658982,11.38,0
19-02-2019 6.28,1550000000000.0,6.5726776,2.0581970000000003,19.414856,-0.62416077,-0.25280762,0.007339478000000001,10.60619618,76.13658982,11.38,0
19-02-2019 6.28,1550000000000.0,2.0165253,10.710846,1.2811583999999998,0.82566833,0.49075317,-0.21209717,10.60619618,76.13658982,11.38,0
19-02-2019 6.28,1550000000000.0,1.26474,1.8379211,14.568985000000001,-0.22148132,0.3842163,-0.2184906,10.60619618,76.13658982,11.38,0
19-02-2019 6.28,1550000000000.0,6.1967926,5.920044,14.643204,0.21954346,-0.13668823,0.032913208,10.60619618,76.13658982,11.38,0
19-02-2019 6.28,1550000000000.0,-3.3656464,7.622314500000001,2.6386719,0.32180786,0.58343506,-0.2419281,10.60619618,76.13658982,11.38,0
19-02-2019 6.28,1550000000000.0,4.583099400000001,4.4236603,8.617004,-0.30883790000000005,-0.4232483,0.080841064,10.60619618,76.13658982,11.38,0
19-02-2019 6.28,1550000000000.0,-2.032074,8.263962,6.3760223,-0.12667847,0.24681091,-0.06935119999999999,10.60619618,76.13658982,11.38,0
19-02-2019 6.28,1550000000000.0,0.30467224,6.815475500000001,10.628128,-0.17460632,-0.15693665,-0.090667725,10.60619618,76.13658982,11.38,0
19-02-2019 6.28,1550000000000.0,0.27833557,8.546478,1.6738129000000002,-0.13093567,-0.072769165,-0.13859558,10.60619618,76.13658982,11.38,0
19-02-2019 6.28,1550000000000.0,-2.2667083999999997,7.9694824,0.804718,-0.11708069,0.114715576,-0.08534241,10.60619618,76.13658982,11.38,0
19-02-2019 6.28,1550000000000.0,3.917511,7.4954224,9.347228999999999,-0.5591735999999999,-0.30819702,0.055282593,10.60619618,76.13658982,11.38,0
19-02-2019 6.28,1550000000000.0,-2.9227142,7.2057343,4.441513,0.01713562,0.39167786,-0.26322937,10.60619618,76.13658982,11.38,0
19-02-2019 6.28,1550000000000.0,5.342071499999999,5.6375275,9.914658,-0.29179382,-0.24215698,-0.07148743,10.60619618,76.13658982,11.38,0
19-02-2019 6.28,1550000000000.0,-1.1222839,6.422821,5.5811462,0.11514282,0.46199036,-0.16523743,10.60619618,76.13658982,11.38,0
19-02-2019 6.28,1550000000000.0,3.6445769999999995,6.137909,9.299347000000001,-0.08938599,-0.003540039,-0.08959961,10.60619618,76.13658982,11.38,0
19-02-2019 6.28,1550000000000.0,0.8816681000000001,4.4883120000000005,10.427017,-0.07022095,0.16584778,-0.10877991,10.60619618,76.13658982,11.38,0
19-02-2019 6.28,1550000000000.0,1.6693573,7.595978,4.7335970000000005,0.18118286,0.09979248,-0.10131836,10.60619618,76.13658982,11.38,0
19-02-2019 6.28,1550000000000.0,0.27593994,2.2976074,12.756577,-0.38659668,0.03907776,-0.09492493,10.60619618,76.13658982,11.38,0
19-02-2019 6.28,1550000000000.0,0.39085388,8.062851,6.7878264999999995,0.26533508,0.03694153,-0.08427429,10.60619618,76.13658982,11.38,0
19-02-2019 6.28,1550000000000.0,1.0660247999999999,3.8586273,11.042328,-0.17355347,-0.051467896,-0.06935119999999999,10.60619618,76.13658982,11.38,0
19-02-2019 6.28,1550000000000.0,0.84814453,5.4316254,6.359268,0.25575256,0.049728394,-0.061904907,10.60619618,76.13658982,11.38,0
19-02-2019 6.28,1550000000000.0,1.3126221000000002,4.2297363,9.241882,-0.0435791,-0.037628174,-0.045928955,10.60619618,76.13658982,11.38,0
19-02-2019 6.28,1550000000000.0,-1.1629791,4.509857,9.229919,0.19503784,0.051864624000000005,-0.09173584,10.60619618,76.13658982,11.38,0
19-02-2019 6.28,1550000000000.0,0.23762512,3.3654327000000004,16.000717,-0.10324097,-0.18569946,-0.037399292,10.60619618,76.13658982,11.38,0
19-02-2019 6.28,1550000000000.0,-1.7375946,8.11792,-1.3093567,0.40596008,-0.07171631,-0.06297302,10.60619618,76.13658982,11.38,0
19-02-2019 6.28,1550000000000.0,-2.2834625,4.308746299999999,5.9091644,-0.38980103,-0.13136292,-0.05870056,10.60619618,76.13658982,11.38,0
19-02-2019 6.28,1550000000000.0,1.1234893999999997,4.959961,10.316879,-0.28433228,-0.43708800000000003,0.032913208,10.60619618,76.13658982,11.38,0
19-02-2019 6.28,1550000000000.0,-2.9442596,8.390854,3.8812714,0.26960754,0.26811218,-0.13327026,10.60619618,76.13658982,11.38,0
19-02-2019 6.28,1550000000000.0,3.3093872,0.880249,13.89621,-0.2619629,-0.31991577,-0.04272461,10.60619618,76.13658982,11.38,0
19-02-2019 6.28,1550000000000.0,-0.58358765,7.710907000000001,3.8309937000000005,0.59025574,0.33415222,-0.13859558,10.60619618,76.13658982,11.38,0
19-02-2019 6.28,1550000000000.0,1.932724,-0.26896667,20.784332,-0.03718567,0.06037903,-0.08746338,10.60619618,76.13658982,11.38,0
19-02-2019 6.28,1550000000000.0,5.176864599999999,5.5297849999999995,7.915497,0.75323486,0.006057739,-0.11090088,10.60619618,76.13658982,11.38,0
19-02-2019 6.28,1550000000000.0,-3.6050720000000003,3.398941,9.598618,0.5731963999999999,0.58555603,-0.24725342,10.60619618,76.13658982,11.38,0
19-02-2019 6.28,1550000000000.0,6.0268097,-0.3910675,23.046860000000002,-0.309906,-0.5990143,0.021194458,10.60619618,76.13658982,11.38,0
19-02-2019 6.28,1550000000000.0,-5.1373596,10.038071,-1.4386444,0.8608245999999999,0.45773315,-0.17907715,10.60619618,76.13658982,11.38,0
19-02-2019 6.28,1550000000000.0,1.4873962,4.2345276,8.518844999999999,-0.48353577,-0.5393677,-0.008636475,10.60619618,76.13658982,11.38,0
19-02-2019 6.28,1550000000000.0,-0.6027374,7.1674194,4.985000599999999,-0.31095886,-0.18569946,-0.06935119999999999,10.60619618,76.13658982,11.38,0
19-02-2019 6.28,1550000000000.0,-2.6737213,10.90477,2.9403534,0.11514282,0.091278076,-0.14819336,10.60619618,76.13658982,11.38,0
19-02-2019 6.28,1550000000000.0,1.7316131999999997,6.358185,7.831695599999999,-0.5634308000000001,-0.32524109999999995,-0.08639526,10.60619618,76.13658982,11.38,0
19-02-2019 6.28,1550000000000.0,-2.4558562999999998,7.112350500000001,6.1629486,0.00328064,0.19033813,-0.23980713,10.60619618,76.13658982,11.38,0
19-02-2019 6.28,1550000000000.0,2.6533813,7.576828,3.8070526,-0.22680664,-0.26559448,-0.10343933,10.60619618,76.13658982,11.38,0
19-02-2019 6.28,1550000000000.0,-3.2938232000000003,7.382903999999999,3.7424011,-0.11602783,0.24574279999999998,-0.2142334,10.60619618,76.13658982,11.38,0
19-02-2019 6.28,1550000000000.0,4.714782700000001,3.9472197999999996,14.540253,-0.43879700000000005,-0.38916016,-0.053375244,10.60619618,76.13658982,11.38,0
19-02-2019 6.28,1550000000000.0,-0.44711304,8.840973,3.081604,0.47839355,0.41725159999999994,-0.18121338,10.60619618,76.13658982,11.38,0
19-02-2019 6.28,1550000000000.0,1.8034363000000002,2.6040650000000003,12.05986,-0.058502197,0.04547119,-0.16842651,10.60619618,76.13658982,11.38,0
19-02-2019 6.28,1550000000000.0,1.9542694,4.3877562999999995,9.720734,0.15455627,0.02949524,-0.11729431,10.60619618,76.13658982,11.38,0
19-02-2019 6.28,1550000000000.0,-0.63386536,4.4164886,12.646438999999999,0.2536316,0.21272278,-0.13754272,10.60619618,76.13658982,11.38,0
19-02-2019 6.28,1550000000000.0,4.8751984,6.6861877000000005,9.225128,0.25682068,-0.26559448,-0.05657959,10.60619618,76.13658982,11.38,0
19-02-2019 6.28,1550000000000.0,-2.8293457,3.4899292,9.043167,0.2578888,0.35546875,-0.21530151,10.60619618,76.13658982,11.38,0
19-02-2019 6.28,1550000000000.0,4.9039307,2.3095856,15.878616000000001,-0.12135315,-0.48396300000000003,0.049957275,10.60619618,76.13658982,11.38,0
19-02-2019 6.28,1550000000000.0,-5.328888,7.926376299999999,2.3370056,0.44111633,0.32243347,-0.13754272,10.60619618,76.13658982,11.38,0
19-02-2019 6.28,1550000000000.0,1.3317719,4.689422599999999,7.5779114000000005,-0.22254944,-0.5521393,-0.032073975,10.60619618,76.13658982,11.38,0
19-02-2019 6.28,1550000000000.0,-1.407196,8.644638,4.429535,-0.11495972,-0.23895264,-0.07041931,10.60619618,76.13658982,11.38,0
19-02-2019 6.28,1550000000000.0,-3.0735474,6.798706,6.7375490000000005,-0.169281,-0.04081726,-0.12582397,10.60619618,76.13658982,11.38,0
19-02-2019 6.28,1550000000000.0,2.528885,8.814636,6.754303,-0.18099976,-0.46479797,-0.034210205,10.60619618,76.13658982,11.38,0
19-02-2019 6.28,1550000000000.0,-3.3033905,9.427551,1.0800476,0.14709473,0.23828125,-0.2184906,10.60619618,76.13658982,11.38,0
19-02-2019 6.28,1550000000000.0,2.8544922,4.5266113,11.231461,-0.33013916,-0.39555359999999995,-0.049118042,10.60619618,76.13658982,11.38,0
19-02-2019 6.28,1550000000000.0,-0.78948975,4.536194,10.369553,0.009674071999999999,0.15945435,-0.08106995,10.60619618,76.13658982,11.38,0
19-02-2019 6.28,1550000000000.0,2.5049438,9.305435000000001,2.0592804,0.15242004,-0.12071228,-0.022491455,10.60619618,76.13658982,11.38,0
19-02-2019 6.28,1550000000000.0,-2.6234436000000003,4.9025115999999995,8.691222999999999,-0.38980103,0.11683655,-0.1907959,10.60619618,76.13658982,11.38,0
19-02-2019 6.28,1550000000000.0,4.1641235,9.796249000000001,6.900360000000001,-0.12774658,-0.30819702,-0.03314209,10.60619618,76.13658982,11.38,0
19-02-2019 6.28,1550000000000.0,-2.9729919999999996,7.691757000000001,4.3529205,-0.025482177999999998,0.36930847,-0.20677185,10.60619618,76.13658982,11.38,0
19-02-2019 6.28,1550000000000.0,4.578308,4.4404297,11.937759,-0.15437317,-0.30073547,-0.07574463,10.60619618,76.13658982,11.38,0
19-02-2019 6.28,1550000000000.0,0.017364502,5.2903595,10.005630499999999,0.17692566,0.28727722,-0.11729431,10.60619618,76.13658982,11.38,0
19-02-2019 6.28,1550000000000.0,2.1218567000000004,6.3103027,7.383987400000001,0.29837036,0.06037903,-0.076812744,10.60619618,76.13658982,11.38,0
19-02-2019 6.28,1550000000000.0,0.9319458,5.3262787000000005,10.695160000000001,-0.010559082,0.004989624000000001,-0.13114929,10.60619618,76.13658982,11.38,0
19-02-2019 6.28,1550000000000.0,1.0277100000000001,6.439575,6.4047545999999995,0.18971252,0.04121399,-0.13327026,10.60619618,76.13658982,11.38,0
19-02-2019 6.28,1550000000000.0,1.3126221000000002,7.363739,5.236389,0.07359314,-0.033355712999999995,-0.14286804,10.60619618,76.13658982,11.38,0
19-02-2019 6.28,1550000000000.0,0.46267700000000006,3.7365265,12.979233,-0.19485474,-0.004592896,-0.1822815,10.60619618,76.13658982,11.38,0
19-02-2019 6.28,1550000000000.0,2.5719757000000003,7.3876800000000005,9.960144,0.24935913,-0.051467896,-0.08106995,10.60619618,76.13658982,11.38,0
19-02-2019 6.28,1550000000000.0,-0.008972168,5.7716064000000005,4.587555,0.076797485,0.18928528,-0.20358276,10.60567405,76.13642940000001,11.3,0
19-02-2019 6.28,1550000000000.0,1.525711,7.584014999999999,3.8166199,0.05229187,-0.12817383,-0.16310120000000003,10.60567405,76.13642940000001,11.3,0
19-02-2019 6.28,1550000000000.0,0.5105590999999999,2.6399841,14.820374,-0.3333435,0.024169922000000003,-0.18440247,10.60567405,76.13642940000001,11.3,0
19-02-2019 6.28,1550000000000.0,3.5942992999999994,9.003769,5.53566,0.517807,-0.07064819,-0.08213806,10.60567405,76.13642940000001,11.3,0
19-02-2019 6.28,1550000000000.0,-0.6099243000000001,1.7158203,14.202667000000002,-0.040390015,0.23081970000000002,-0.22808838,10.60567405,76.13642940000001,11.3,0
19-02-2019 6.28,1550000000000.0,4.5232544,5.584854,8.585875999999999,0.42939758,-0.21232605,-0.09599304,10.60567405,76.13642940000001,11.3,0
19-02-2019 6.28,1550000000000.0,-3.052002,5.656677200000001,9.296951,0.40489197,0.3714447,-0.22381592,10.60567405,76.13642940000001,11.3,0
19-02-2019 6.28,1550000000000.0,4.695633,3.5210571,10.891494999999999,-0.019088745,-0.4935608,-0.013961791999999999,10.60567405,76.13642940000001,11.3,0
19-02-2019 6.28,1550000000000.0,-3.506897,6.3486023000000005,8.308150999999999,0.27067566,0.27876282,-0.14819336,10.60567405,76.13642940000001,11.3,0
19-02-2019 6.28,1550000000000.0,3.510498,4.8163147,13.69989,-0.12561035,-0.51911926,-0.002243042,10.60567405,76.13642940000001,11.3,0
19-02-2019 6.28,1550000000000.0,-4.5795135,9.406006,0.16546631,0.2940979,0.15199279999999998,-0.13859558,10.60567405,76.13642940000001,11.3,0
19-02-2019 6.28,1550000000000.0,0.28071594,4.469162,9.811707,-0.48779297,-0.51698303,-0.04486084,10.60567405,76.13642940000001,11.3,0
19-02-2019 6.28,1550000000000.0,-0.71047974,12.6501465,-0.90953064,-0.18952942,-0.29754640000000004,-0.01184082,10.60567405,76.13642940000001,11.3,0
19-02-2019 6.28,1550000000000.0,-4.8692017,7.574432400000001,4.0345,-0.45265198,-0.000336,-0.17375183,10.60567405,76.13642940000001,11.3,0
19-02-2019 6.28,1550000000000.0,3.9869537000000004,7.9575043,9.205978,-0.5623627,-0.74282837,-0.0043792729999999995,10.60567405,76.13642940000001,11.3,0
19-02-2019 6.28,1550000000000.0,-5.558731,9.010956,3.7064972000000003,0.16201782,0.48968506,-0.22488403,10.60567405,76.13642940000001,11.3,0
19-02-2019 6.28,1550000000000.0,6.74028,7.94075,3.7232513,-0.24491882,-0.56918335,-0.01184082,10.60567405,76.13642940000001,11.3,0
19-02-2019 6.28,1550000000000.0,-5.8603973,10.069199000000001,-2.9182587000000004,0.12792969,0.68782043,-0.34632874,10.60567405,76.13642940000001,11.3,0
19-02-2019 6.28,1550000000000.0,11.509537,3.1188202,19.740463000000002,-0.7732849,-0.53616333,-0.05444336,10.60567405,76.13642940000001,11.3,0
19-02-2019 6.28,1550000000000.0,0.9295502,11.014908,-2.0443878,0.8800049000000001,0.8635864,-0.37083435,10.60567405,76.13642940000001,11.3,0
19-02-2019 6.28,1550000000000.0,5.2558746,-0.27375793,18.162674,-0.17781067,0.28515625,-0.34846497,10.60567405,76.13642940000001,11.3,0
19-02-2019 6.28,1550000000000.0,7.5567017000000005,1.7948302999999999,14.190704,0.43365479999999995,0.012451172,-0.19400024,10.60567405,76.13642940000001,11.3,0
19-02-2019 6.28,1550000000000.0,-5.628174,11.005325,2.595581,1.2198181000000001,0.84228516,-0.39532470000000003,10.60567405,76.13642940000001,11.3,0
19-02-2019 6.28,1550000000000.0,6.656478999999999,-5.5386047,23.255142000000003,-1.1791534,-1.0400391,-0.01184082,10.60567405,76.13642940000001,11.3,0
19-02-2019 6.28,1550000000000.0,-6.870758,13.483322,-6.784897,0.9087677,0.23188782,-0.15563965,10.60567405,76.13642940000001,11.3,0
19-02-2019 6.28,1550000000000.0,-1.1510162,-1.6049347,19.467514,-1.2920684999999998,-0.7907562,0.003082275,10.60567405,76.13642940000001,11.3,0
19-02-2019 6.28,1550000000000.0,-3.0879211,14.007660000000001,-7.1751556,0.3367157,-0.5212555,-0.005447388,10.60567405,76.13642940000001,11.3,0
19-02-2019 6.28,1550000000000.0,-5.290588400000001,5.718933,2.8278198,-0.7402649,-0.21018982,-0.038467407,10.60567405,76.13642940000001,11.3,0
19-02-2019 6.28,1550000000000.0,2.308609,7.3541718,7.316940299999999,-0.5879364,-0.9122009,0.118133545,10.60567405,76.13642940000001,11.3,0
19-02-2019 6.28,1550000000000.0,-5.925049,8.759567,0.6562805,0.11940002400000001,0.34693909999999994,-0.13966370000000003,10.60567405,76.13642940000001,11.3,0
19-02-2019 6.28,1550000000000.0,4.2718506,5.3693695,11.293716,-0.35357666,-0.6970215,0.06272888,10.60567405,76.13642940000001,11.3,0
19-02-2019 6.28,1550000000000.0,-3.403946,3.8538513,10.043944999999999,0.004348755,0.3011322,-0.15138245,10.60567405,76.13642940000001,11.3,0
19-02-2019 6.28,1550000000000.0,4.314956700000001,8.053268,6.8596497,0.22059631,-0.33163452,0.049957275,10.60567405,76.13642940000001,11.3,0
19-02-2019 6.28,1550000000000.0,-2.0512238000000003,6.327057,4.872466999999999,0.022460938,0.32563782,-0.14712524,10.60567405,76.13642940000001,11.3,0
19-02-2019 6.28,1550000000000.0,4.11145,3.8873596,16.022263,-0.00630188,-0.19207764,-0.03526306,10.60567405,76.13642940000001,11.3,0
19-02-2019 6.28,1550000000000.0,3.0699615000000002,5.7261047,11.691147,0.32606506,0.102996826,-0.12261963,10.60567405,76.13642940000001,11.3,0
19-02-2019 6.28,1550000000000.0,-0.799057,5.671051,4.781494,0.37719727,0.32563782,-0.19186401,10.60567405,76.13642940000001,11.3,0
19-02-2019 6.28,1550000000000.0,2.7084502999999995,4.7133636,10.778961,-0.12135315,-0.31352234,-0.09278869999999999,10.60567405,76.13642940000001,11.3,0
19-02-2019 6.28,1550000000000.0,-1.3545227,7.1362915,7.537216,0.043762207000000004,0.08595276,-0.15351868,10.60567405,76.13642940000001,11.3,0
19-02-2019 6.28,1550000000000.0,1.5999298,8.591965,4.175750700000001,0.13218689,-0.16758728,-0.08427429,10.60567405,76.13642940000001,11.3,0
19-02-2019 6.28,1550000000000.0,-1.2156525,3.9352417,8.28421,-0.23001099,-0.055725098,-0.18972778,10.60567405,76.13642940000001,11.3,0
19-02-2019 6.28,1550000000000.0,0.07482910000000001,4.449997,12.050278,-0.10536194,-0.13882446,-0.10343933,10.60567405,76.13642940000001,11.3,0
19-02-2019 6.28,1550000000000.0,0.41239929999999997,6.0924225,9.751846,-0.049972534000000006,-0.04295349,-0.10450745,10.60567405,76.13642940000001,11.3,0
19-02-2019 6.28,1550000000000.0,0.49859620000000004,7.0213776,7.640167,0.10874939,-0.032287598,-0.23980713,10.60567405,76.13642940000001,11.3,0
19-02-2019 6.28,1550000000000.0,1.5185242,4.701385500000001,10.93219,-0.073410034,0.026290894,-0.17800903,10.60567405,76.13642940000001,11.3,0
19-02-2019 6.28,1550000000000.0,3.6900635000000004,8.821808,1.5133972,0.47413635,0.015640259,-0.16629028,10.60567405,76.13642940000001,11.3,0
19-02-2019 6.28,1550000000000.0,-0.049682617000000005,0.9712219000000001,15.871429000000001,-0.052108765,0.29794312,-0.30903625,10.60567405,76.13642940000001,11.3,0
19-02-2019 6.28,1550000000000.0,5.8089294,2.908142,13.613693,0.25149536,-0.2559967,-0.07574463,10.60567405,76.13642940000001,11.3,0
19-02-2019 6.28,1550000000000.0,-4.268265,6.947159,2.298706,0.63072205,0.55467224,-0.27494812,10.60567405,76.13642940000001,11.3,0
19-02-2019 6.28,1550000000000.0,3.7762604,-1.1500397,17.849045,-0.7391968000000001,-0.67144775,-0.059768677,10.60567405,76.13642940000001,11.3,0
19-02-2019 6.28,1550000000000.0,-1.4502868999999998,12.362839,-1.3572388000000002,0.2578888,0.06997681,-0.15563965,10.60567405,76.13642940000001,11.3,0
19-02-2019 6.28,1550000000000.0,-1.2443848,7.909622,2.1430817,-0.3226776,-0.12817383,-0.20465088,10.60567405,76.13642940000001,11.3,0
19-02-2019 6.28,1550000000000.0,-0.30825806,4.7708281999999995,10.702347,-0.391922,-0.36465454,-0.17375183,10.60567405,76.13642940000001,11.3,0
19-02-2019 6.28,1550000000000.0,-2.482193,3.1762848,14.073379500000001,-0.057434082000000004,0.004989624000000001,-0.17588806,10.60567405,76.13642940000001,11.3,0
19-02-2019 6.28,1550000000000.0,-0.8421630999999999,10.442688,0.7448578,0.45495605,-0.29328918,-0.10131836,10.60567405,76.13642940000001,11.3,0
19-02-2019 6.28,1550000000000.0,-4.0695343,3.205017,7.757477000000001,-0.44732666,-0.09941101,-0.23448181,10.60567405,76.13642940000001,11.3,0
19-02-2019 6.28,1550000000000.0,3.948639,9.101929,6.615448,-0.11389160000000002,-0.63842773,-0.007568359,10.60567405,76.13642940000001,11.3,0
19-02-2019 6.28,1550000000000.0,-5.544372599999999,8.59436,3.7591705,0.08105469,0.44281006,-0.28347778,10.60567405,76.13642940000001,11.3,0
19-02-2019 6.28,1550000000000.0,6.0842743,5.1826324,12.418991,-0.23001099,-0.57450867,-0.111968994,10.60567405,76.13642940000001,11.3,0
19-02-2019 6.28,1550000000000.0,-2.2451630000000002,8.467467999999998,2.9834442,0.43258667,0.47157288,-0.32608032,10.60567405,76.13642940000001,11.3,0
19-02-2019 6.28,1550000000000.0,4.6190185999999995,4.727722,10.597000000000001,-0.09791565,-0.15161133,-0.16416931,10.60567405,76.13642940000001,11.3,0
19-02-2019 6.28,1550000000000.0,0.11552429,5.256851,10.877121,0.036315917999999996,0.16371155,-0.22276306,10.60567405,76.13642940000001,11.3,0
19-02-2019 6.28,1550000000000.0,3.5248718,7.46669,8.075911999999999,0.08956909,-0.006729125999999999,-0.17268372,10.60567405,76.13642940000001,11.3,0
19-02-2019 6.28,1550000000000.0,0.81703186,5.328674299999999,8.997681,-0.059570312,0.09020996,-0.18867493,10.60567405,76.13642940000001,11.3,0
19-02-2019 6.28,1550000000000.0,1.3413544,7.536133,11.188369999999999,0.11833191,0.03161621,-0.17375183,10.60567405,76.13642940000001,11.3,0
19-02-2019 6.28,1550000000000.0,2.5121154999999997,6.7771606,9.411880499999999,0.20675659,-0.063186646,-0.14286804,10.60567405,76.13642940000001,11.3,0
19-02-2019 6.28,1550000000000.0,-1.4191589,4.7708281999999995,6.850082400000001,0.47093199999999996,0.22337341,-0.22488403,10.60567405,76.13642940000001,11.3,0
19-02-2019 6.28,1550000000000.0,5.4210815000000006,0.12606812,18.495468,-0.29286194,-0.51911926,0.004150391,10.60567405,76.13642940000001,11.3,0
19-02-2019 6.28,1550000000000.0,-4.555557299999999,8.002991,1.4391785,0.7681427,0.30326843,-0.19612122,10.60567405,76.13642940000001,11.3,0
19-02-2019 6.28,1550000000000.0,1.1498108,4.6415405,10.221115,-0.2534485,-0.54681396,-0.11090088,10.60567405,76.13642940000001,11.3,0
19-02-2019 6.28,1550000000000.0,-2.1278381,5.8601837,9.313705,0.09596252400000001,-0.19421387,-0.16203308,10.60567405,76.13642940000001,11.3,0
19-02-2019 6.28,1550000000000.0,-0.14305115,8.204117,5.5069275,0.22380066,-0.19421387,-0.090667725,10.60567405,76.13642940000001,11.3,0
19-02-2019 6.28,1550000000000.0,0.29269409999999996,3.9687653,6.203644000000001,-0.11602783,-0.21446228,-0.15351868,10.60567405,76.13642940000001,11.3,0
19-02-2019 6.28,1550000000000.0,-1.0744018999999998,6.0804596,7.403136999999999,0.00541687,-0.053604125999999995,-0.17800903,10.60567405,76.13642940000001,11.3,0
19-02-2019 6.28,1550000000000.0,1.2336121000000002,5.989471400000001,8.537994,-0.15969849,-0.19528198,-0.100250244,10.60567405,76.13642940000001,11.3,0
19-02-2019 6.28,1550000000000.0,-0.52612305,9.824982,1.1877898999999998,0.23658752,0.046539307,-0.22595215,10.60567405,76.13642940000001,11.3,0
19-02-2019 6.28,1550000000000.0,2.0165253,2.5992889999999997,12.184357,-0.41961670000000006,-0.17077637,-0.19718933,10.60567405,76.13642940000001,11.3,0
19-02-2019 6.28,1550000000000.0,1.5927428999999997,5.5297849999999995,8.602631,0.20036316,0.007125855,-0.1354065,10.60567405,76.13642940000001,11.3,0
19-02-2019 6.28,1550000000000.0,-2.1900939999999998,6.360580400000001,8.277023,0.17160034,0.075302124,-0.17907715,10.60567405,76.13642940000001,11.3,0
19-02-2019 6.28,1550000000000.0,1.1522063999999999,3.4875336000000003,15.356674,-0.13839722,-0.34228516,-0.13433838,10.60567405,76.13642940000001,11.3,0
19-02-2019 6.28,1550000000000.0,-0.34895325,7.3086853000000005,4.9299316,0.44856262,-0.02909851,-0.1354065,10.60567405,76.13642940000001,11.3,0
19-02-2019 6.28,1550000000000.0,0.8457488999999999,6.9926452999999995,5.20047,0.12686157,-0.17503357,-0.18440247,10.60567405,76.13642940000001,11.3,0
19-02-2019 6.28,1550000000000.0,-2.0847473,4.268036,12.526733,0.03843689,-0.035491943,-0.24406433,10.60567405,76.13642940000001,11.3,0
19-02-2019 6.28,1550000000000.0,3.2591095,6.018203700000001,12.605742999999999,0.2578888,-0.38383484,-0.04272461,10.60567405,76.13642940000001,11.3,0
19-02-2019 6.28,1550000000000.0,-2.439087,5.338257,5.559601,0.41554259999999993,0.05079651,-0.17800903,10.60567405,76.13642940000001,11.3,0
19-02-2019 6.28,1550000000000.0,1.2431946000000003,6.657455400000001,6.045624,0.09170532,-0.36679077,-0.14819336,10.60567405,76.13642940000001,11.3,0
19-02-2019 6.28,1550000000000.0,-0.09037781,4.5433807,13.570602,-0.11495972,-0.15266418,-0.16523743,10.60567405,76.13642940000001,11.3,0
19-02-2019 6.28,1550000000000.0,0.38845825,10.655777,3.0935822,0.49436949999999996,-0.049331665,-0.1354065,10.60567405,76.13642940000001,11.3,0
19-02-2019 6.28,1550000000000.0,2.1529846,2.9871368,10.204361,-0.33013916,-0.09194946,-0.18972778,10.60567405,76.13642940000001,11.3,0
19-02-2019 6.28,1550000000000.0,1.3748778999999998,8.908005000000001,5.3824309999999995,0.30795288,-0.02696228,-0.17481995,10.60567405,76.13642940000001,11.3,0
19-02-2019 6.28,1550000000000.0,1.7675171000000003,5.4124756,13.168381,-0.35357666,0.008178711,-0.14819336,10.60567405,76.13642940000001,11.3,0
19-02-2019 6.28,1550000000000.0,2.394806,10.725204,1.096817,0.49436949999999996,0.000732,-0.18121338,10.60567405,76.13642940000001,11.3,0
19-02-2019 6.28,1550000000000.0,1.1378479,5.2472687,9.055145,-0.21296692,0.08381653,-0.2888031,10.60567405,76.13642940000001,11.3,0
19-02-2019 6.28,1550000000000.0,-0.10473633,6.22171,9.979294,0.041641235,-0.063186646,-0.16842651,10.60567405,76.13642940000001,11.3,0
19-02-2019 6.28,1550000000000.0,4.341293299999999,8.661407,5.049637000000001,-0.014816283999999999,-0.14308167,-0.09278869999999999,10.60567405,76.13642940000001,11.3,0
19-02-2019 6.28,1550000000000.0,0.09397888,9.638228999999999,4.860504,0.053359985,0.102996826,-0.26322937,10.60567405,76.13642940000001,11.3,0
19-02-2019 6.28,1550000000000.0,4.372421299999999,5.9032745,11.66243,-0.44625854,-0.08981323,-0.23127747,10.60567405,76.13642940000001,11.3,0
19-02-2019 6.28,1550000000000.0,3.201645,13.940613,-3.9190369,0.7116852,0.15199279999999998,-0.19186401,10.60567405,76.13642940000001,11.3,0
19-02-2019 6.28,1550000000000.0,-0.28909302,3.2816315,12.526733,-0.46437073,0.25106812,-0.36550903,10.60567405,76.13642940000001,11.3,0
19-02-2019 6.28,1550000000000.0,5.7371063,2.9248962000000005,17.659897,-0.044647217,-0.49035645,0.019058228,10.60567405,76.13642940000001,11.3,0
19-02-2019 6.28,1550000000000.0,-3.4087372000000005,12.156937,-6.693924000000001,0.7095642,0.27130127,-0.08001709,10.60567405,76.13642940000001,11.3,0
19-02-2019 6.28,1550000000000.0,-2.2499542000000003,0.078186035,15.847488,-1.0726318000000001,-0.55960083,-0.158844,10.60567405,76.13642940000001,11.3,0
19-02-2019 6.28,1550000000000.0,2.6102752999999996,13.176865,1.1710358,0.14283752,-0.62138367,0.028640747,10.60567405,76.13642940000001,11.3,0
19-02-2019 6.28,1550000000000.0,-4.213196,9.568802,-1.8552398999999997,-0.12347412,0.24360657,-0.17163086,10.60567405,76.13642940000001,11.3,0
19-02-2019 6.28,1550000000000.0,3.2519226000000003,-1.3846741000000002,20.583220999999998,-0.41003418,-0.5862274000000001,-0.13114929,10.60567405,76.13642940000001,11.3,0
19-02-2019 6.28,1550000000000.0,4.326919599999999,2.9320831000000003,13.850723,0.6637573,-0.025909424,0.009475708000000001,10.60567405,76.13642940000001,11.3,0
19-02-2019 6.28,1550000000000.0,-7.7494354,4.9288483,7.7598724,1.2677611999999998,0.4023285,-0.11729431,10.60567405,76.13642940000001,11.3,0
19-02-2019 6.28,1550000000000.0,4.707596,-4.4588165,26.446625,-0.5613098000000001,-1.1401671999999998,0.07765198,10.60567405,76.13642940000001,11.3,0
19-02-2019 6.28,1550000000000.0,-6.051941,12.961395,-3.6341248,1.2901306000000001,0.04121399,-0.0043792729999999995,10.60567405,76.13642940000001,11.3,0
19-02-2019 6.28,1550000000000.0,-3.633789,4.5960540000000005,11.621719,-0.64971924,-0.69488525,0.01586914,10.60567405,76.13642940000001,11.3,0
19-02-2019 6.28,1550000000000.0,1.2072753999999999,9.523315,1.7384644,-0.15437317,-0.91859436,0.07977295,10.60567405,76.13642940000001,11.3,0
19-02-2019 6.28,1550000000000.0,-5.230728,11.984558,-5.1424712999999995,0.13537598,0.15731812,-0.10557556,10.60567405,76.13642940000001,11.3,0
19-02-2019 6.28,1550000000000.0,4.7937927,2.9967194,17.147537,-0.95651245,-0.86213684,0.063797,10.60567405,76.13642940000001,11.3,0
19-02-2019 6.28,1550000000000.0,-2.0943297999999997,12.915894,0.8909149,0.75323486,0.37463379999999996,-0.11515808,10.60567405,76.13642940000001,11.3,0
19-02-2019 6.28,1550000000000.0,4.3819885,1.8618622,16.809952,-0.2992401,-0.19953918,-0.025680542,10.60567405,76.13642940000001,11.3,0
19-02-2019 6.28,1550000000000.0,2.8473053,5.1467133,9.062317,0.38465879999999997,-0.023773192999999998,-0.06829834,10.60567405,76.13642940000001,11.3,0
19-02-2019 6.28,1550000000000.0,0.82899475,7.971878,4.412781,0.32392883,0.15306091,-0.08639526,10.60567405,76.13642940000001,11.3,0
19-02-2019 6.28,1550000000000.0,1.3246002000000001,6.6790009999999995,8.183655,-0.10003662,-0.23362732,-0.06829834,10.60567405,76.13642940000001,11.3,0
19-02-2019 6.28,1550000000000.0,1.9351196,6.6694336,8.911484,-0.16288757,-0.12710571,-0.038467407,10.60567405,76.13642940000001,11.3,0
19-02-2019 6.28,1550000000000.0,1.6980896,10.054825,3.8932343,0.21954346,-0.06637573,-0.016098022,10.60567405,76.13642940000001,11.3,0
19-02-2019 6.28,1550000000000.0,2.9071655,4.734909,11.138092,-0.27261353,0.0028533940000000004,-0.09599304,10.60567405,76.13642940000001,11.3,0
19-02-2019 6.28,1550000000000.0,2.8305511,7.560074,6.1892853,0.17373657,-0.10153198,0.016921997,10.60567405,76.13642940000001,11.3,0
19-02-2019 6.28,1550000000000.0,0.64224243,5.869766,8.214767,-0.10430908,0.08595276,-0.038467407,10.60567405,76.13642940000001,11.3,0
19-02-2019 6.28,1550000000000.0,3.0388488999999996,6.7436523,7.8987427,0.10021973,-0.23469543,0.01159668,10.60567405,76.13642940000001,11.3,0
19-02-2019 6.28,1550000000000.0,-2.261917,5.951172,4.453476,0.074661255,0.08062744,-0.065093994,10.60567405,76.13642940000001,11.3,0
19-02-2019 6.28,1550000000000.0,3.0508118,4.090866,14.743758999999999,-0.3184204,-0.5436249,0.10960388,10.60567405,76.13642940000001,11.3,0
19-02-2019 6.28,1550000000000.0,-1.1653748,8.852936,4.690506,0.26107788,-0.047210693,-0.005447388,10.60567405,76.13642940000001,11.3,0
19-02-2019 6.28,1550000000000.0,-0.6147156,5.278396599999999,7.9825287,-0.20869446,-0.26664734,0.012664795,10.60567405,76.13642940000001,11.3,0
19-02-2019 6.28,1550000000000.0,1.046875,8.055664,4.9323273,0.03843689,-0.35614014,0.005203247,10.60567405,76.13642940000001,11.3,0
19-02-2019 6.28,1550000000000.0,-1.6513977,7.634292599999999,2.9211883999999997,0.06613159,0.000732,-0.04486084,10.60567405,76.13642940000001,11.3,0
19-02-2019 6.28,1550000000000.0,1.7938538,4.4643707,8.674453999999999,-0.11175537,-0.3859558,0.0680542,10.60567405,76.13642940000001,11.3,0
19-02-2019 6.28,1550000000000.0,-0.13586426,4.6415405,13.493988,-0.061691284000000006,-0.10473633,-0.015029907,10.60567405,76.13642940000001,11.3,0
19-02-2019 6.28,1550000000000.0,0.8122406,7.7420350000000004,5.602707,0.31114197,-0.17823792,0.054214477999999997,10.60567405,76.13642940000001,11.3,0
19-02-2019 6.28,1550000000000.0,-1.4263458,3.8801879999999995,7.233154300000001,-0.19378662,-0.10580444,-0.043792725,10.60567405,76.13642940000001,11.3,0
19-02-2019 6.28,1550000000000.0,1.8632965,6.022995,11.418213,0.13858032,-0.36253357,0.032913208,10.60567405,76.13642940000001,11.3,0
19-02-2019 6.28,1550000000000.0,-0.9618683000000001,4.868988,6.356872599999999,0.12579346,0.02949524,0.020126343,10.60567405,76.13642940000001,11.3,0
19-02-2019 6.28,1550000000000.0,-0.67456055,3.8394775,10.036758,0.20143127,-0.26664734,0.07232666,10.60567405,76.13642940000001,11.3,0
19-02-2019 6.28,1550000000000.0,2.2703094,3.540207,15.272873,-0.005233765,-0.34014893,0.06700134,10.60567405,76.13642940000001,11.3,0
19-02-2019 6.28,1550000000000.0,-2.9538422000000004,7.981445299999999,0.33306885,0.5327301,0.042266846,0.026519775,10.60567405,76.13642940000001,11.3,0
19-02-2019 6.28,1550000000000.0,-0.8469391,3.4947205,14.856292999999999,-0.5368042,-0.51486206,0.080841064,10.60567405,76.13642940000001,11.3,0
19-02-2019 6.28,1550000000000.0,0.56562805,10.296646,0.4910736,0.13325499999999998,-0.3816986,0.09788513,10.60567405,76.13642940000001,11.3,0
19-02-2019 6.28,1550000000000.0,-4.174881,7.591186500000001,3.615509,-0.30883790000000005,-0.06637573,-0.01928711,10.60567405,76.13642940000001,11.3,0
19-02-2019 6.28,1550000000000.0,4.463394,3.8442687999999996,12.383072,-0.62841797,-0.7769165,0.17565918,10.60567405,76.13642940000001,11.3,0
19-02-2019 6.28,1550000000000.0,-2.9442596,12.803375,-5.1041718000000005,0.82141113,0.43641663,-0.07255554,10.60567405,76.13642940000001,11.3,0
19-02-2019 6.28,1550000000000.0,4.7650604,-1.6073302999999999,20.056488,-0.47714233,-0.40299988,0.06700134,10.60567405,76.13642940000001,11.3,0
19-02-2019 6.28,1550000000000.0,2.3708649,10.593521,3.7208557,1.042984,0.23721313,0.03929138,10.60567405,76.13642940000001,11.3,0
19-02-2019 6.28,1550000000000.0,1.8201903999999998,0.6456145999999999,19.673416,0.19396973,0.20632935,-0.00970459,10.60567405,76.13642940000001,11.3,0
19-02-2019 6.28,1550000000000.0,5.722748,3.1619262999999997,16.642364999999998,0.3324585,-0.27197266,0.12132263,10.60567405,76.13642940000001,11.3,0
19-02-2019 6.28,1550000000000.0,-3.3776245000000005,7.397262599999999,2.3609467,0.7585602,0.49075317,-0.039535522000000003,10.60567405,76.13642940000001,11.3,0
19-02-2019 6.28,1550000000000.0,3.2591095,3.5306243999999998,13.462860000000001,-0.32695007,-0.61499023,0.11706543,10.60567405,76.13642940000001,11.3,0
19-02-2019 6.28,1550000000000.0,-1.5508423,9.439513999999999,-2.4753418,0.3175354,0.026290894,0.06700134,10.60567405,76.13642940000001,11.3,0
19-02-2019 6.28,1550000000000.0,1.7387848000000001,5.019821,10.968109,-0.5911255,-0.39555359999999995,0.13517761,10.60567405,76.13642940000001,11.3,0
19-02-2019 6.28,1550000000000.0,-0.23881531,3.932846,12.641647,-0.18632507,-0.18995667,0.053146362,10.60567405,76.13642940000001,11.3,0
19-02-2019 6.28,1550000000000.0,0.7643585,8.754776,3.4981995,0.47093199999999996,-0.063186646,0.113861084,10.60567405,76.13642940000001,11.3,0
19-02-2019 6.28,1550000000000.0,-1.4239502,1.3806305,15.892975,0.121536255,-0.12817383,0.022247314,10.60567405,76.13642940000001,11.3,0
19-02-2019 6.28,1550000000000.0,1.987793,3.3295135,11.832413,0.35908508,-0.30180359999999995,0.13623047,10.60567405,76.13642940000001,11.3,0
19-02-2019 6.28,1550000000000.0,-4.469375599999999,6.6335144,3.3593292000000003,0.7159424,0.007125855,0.12557983,10.60567405,76.13642940000001,11.3,0
19-02-2019 6.28,1550000000000.0,0.40283203,0.3966217,18.83545,-0.50164795,-0.61073303,0.14050293,10.60567405,76.13642940000001,11.3,0
19-02-2019 6.28,1550000000000.0,-2.1398162999999997,8.75238,0.04336548,0.5114135999999999,-0.2986145,0.17884827,10.60567405,76.13642940000001,11.3,0
19-02-2019 6.28,1550000000000.0,-2.3768463,7.7947083,3.7831116000000002,-0.10536194,-0.21658325,0.07658386,10.60567405,76.13642940000001,11.3,0
19-02-2019 6.28,1550000000000.0,1.5711975,3.6766815000000004,14.284073000000001,-0.32481384,-0.48928833,0.16712952,10.60567405,76.13642940000001,11.3,0
19-02-2019 6.28,1550000000000.0,0.4914093,11.103485000000001,1.8821106,0.5827941999999999,0.05293274,0.115997314,10.60567405,76.13642940000001,11.3,0
19-02-2019 6.28,1550000000000.0,1.1474303999999997,2.70224,14.176331,-0.22894287,-0.119644165,0.05101013,10.60567405,76.13642940000001,11.3,0
19-02-2019 6.28,1550000000000.0,1.798645,5.7524414,6.1437836,0.35269165,-0.037628174,0.05101013,10.60567405,76.13642940000001,11.3,0
19-02-2019 6.28,1550000000000.0,-1.249176,6.3869169999999995,3.7064972000000003,0.21315002,0.065704346,0.04675293,10.60567405,76.13642940000001,11.3,0
19-02-2019 6.28,1550000000000.0,1.3078308,5.161072,10.69278,-0.2715454,-0.27624512,0.07232666,10.60530034,76.13612386,11.62,0
19-02-2019 6.28,1550000000000.0,0.85054016,6.0277863,4.429535,-0.12667847,-0.06958008,0.1149292,10.60530034,76.13612386,11.62,0
19-02-2019 6.28,1550000000000.0,0.36212158,7.588806,7.0440062999999995,-0.17674255,-0.074905396,0.09576416,10.60530034,76.13612386,11.62,0
19-02-2019 6.28,1550000000000.0,1.9973602,3.9544067000000003,12.189148,-0.44732666,-0.10899353,0.05633545,10.60530034,76.13612386,11.62,0
19-02-2019 6.28,1550000000000.0,1.1689758,11.718796000000001,-2.484909,0.59558105,0.12004089,0.044631958,10.60530034,76.13612386,11.62,0
19-02-2019 6.28,1550000000000.0,0.888855,3.477951,11.779739,-0.39512634,-0.000336,0.003082275,10.60530034,76.13612386,11.62,0
19-02-2019 6.28,1550000000000.0,2.8233642999999997,5.553726,9.610596000000001,0.14709473,-0.12922668,0.092559814,10.60530034,76.13612386,11.62,0
19-02-2019 6.28,1550000000000.0,-0.6985016,7.2224884000000005,5.37764,0.11514282,0.14559937,0.06272888,10.60530034,76.13612386,11.62,0
19-02-2019 6.28,1550000000000.0,2.2631226000000004,6.729278599999999,10.127747,-0.05529785,-0.2474823,0.080841064,10.60530034,76.13612386,11.62,0
19-02-2019 6.28,1550000000000.0,-0.1765747,8.984619,2.7990875,0.07040405,0.06997681,0.040359497,10.60530034,76.13612386,11.62,0
19-02-2019 6.28,1550000000000.0,-0.11671448,7.023772999999999,9.316101,-0.28540040000000005,-0.13456726,0.12345886,10.60530034,76.13612386,11.62,0
19-02-2019 6.28,1550000000000.0,2.7850647,9.674149,6.3808136,-0.13412476,-0.21978760000000003,0.14476013,10.60530034,76.13612386,11.62,0
19-02-2019 6.28,1550000000000.0,-2.1924896,8.405228,3.8501434000000003,-0.038253784,0.1796875,-0.010772705,10.60530034,76.13612386,11.62,0
19-02-2019 6.28,1550000000000.0,2.9430695,5.362198,9.591446000000001,-0.32695007,-0.33909607,0.10002136,10.60530034,76.13612386,11.62,0
19-02-2019 6.28,1550000000000.0,-1.0241241,10.813782000000002,-1.0771178999999997,0.44963074,0.26811218,-0.016098022,10.60530034,76.13612386,11.62,0
19-02-2019 6.28,1550000000000.0,2.9718017999999997,2.6064606,13.369492000000001,-0.46969604,-0.17184448,0.08830261,10.60530034,76.13612386,11.62,0
19-02-2019 6.28,1550000000000.0,2.6581726000000003,8.852936,6.1437836,0.40489197,0.10511780000000001,0.06272888,10.60530034,76.13612386,11.62,0
19-02-2019 6.28,1550000000000.0,1.5520477,4.359024,11.063873,-0.14265442,0.22869873,0.040359497,10.60530034,76.13612386,11.62,0
19-02-2019 6.28,1550000000000.0,3.7403412000000005,6.228897,10.810089,0.08212280000000001,-0.053604125999999995,0.082977295,10.60530034,76.13612386,11.62,0
19-02-2019 6.28,1550000000000.0,0.13227844,7.718094000000001,5.722412,0.24191284,0.3714447,-0.05230713,10.60530034,76.13612386,11.62,0
19-02-2019 6.28,1550000000000.0,2.9023743,6.2073517,8.490112,-0.17355347,-0.17823792,0.13943481,10.60530034,76.13612386,11.62,0
19-02-2019 6.28,1550000000000.0,0.82180786,6.020599400000001,8.832474000000001,-0.11495972,0.09339905,0.052078247,10.60530034,76.13612386,11.62,0
19-02-2019 6.28,1550000000000.0,2.004547,8.199326,4.4510955999999995,0.19503784,0.01777649,0.054214477999999997,10.60530034,76.13612386,11.62,0
19-02-2019 6.28,1550000000000.0,-0.31782532,5.419647,6.773467999999999,-0.24385071,0.14666748,0.024383545,10.60530034,76.13612386,11.62,0
19-02-2019 6.28,1550000000000.0,3.055603,8.584793,6.7830353,0.1375122,-0.11112976,0.07337952,10.60530034,76.13612386,11.62,0
19-02-2019 6.28,1550000000000.0,1.0133514000000001,5.3645935,8.164489999999999,-0.15544128,0.20100403,0.020126343,10.60530034,76.13612386,11.62,0
19-02-2019 6.28,1550000000000.0,3.5248718,7.756393400000001,6.4215089999999995,0.09063721,-0.02909851,0.07872009,10.60530034,76.13612386,11.62,0
19-02-2019 6.28,1550000000000.0,1.0803833,5.98468,11.715103,-0.085128784,0.2691803,-0.065093994,10.60530034,76.13612386,11.62,0
19-02-2019 6.28,1550000000000.0,3.1154632999999996,6.3294525,7.2786407,0.121536255,0.030563353999999997,0.033966064,10.60530034,76.13612386,11.62,0
19-02-2019 6.28,1550000000000.0,-0.6649933000000001,6.731674000000001,6.7495270000000005,0.15029907,0.29794312,-0.07362366,10.60530034,76.13612386,11.62,0
19-02-2019 6.28,1550000000000.0,2.5695799999999998,4.239319,9.550735000000001,-0.13839722,-0.13243103,0.055282593,10.60530034,76.13612386,11.62,0
19-02-2019 6.28,1550000000000.0,-1.3736725,7.8904724,1.5684662,0.16734314,0.13920593,0.024383545,10.60530034,76.13612386,11.62,0
19-02-2019 6.28,1550000000000.0,0.12031555,3.9568024,12.423782000000001,-0.39405823,-0.16438293,0.003082275,10.60530034,76.13612386,11.62,0
19-02-2019 6.28,1550000000000.0,0.25917053,8.848145,3.7424011,0.02671814,-0.098342896,0.07444763,10.60530034,76.13612386,11.62,0
19-02-2019 6.28,1550000000000.0,-2.1685486000000003,6.659851,6.871628,-0.15116882,0.122161865,-0.036331177,10.60530034,76.13612386,11.62,0
19-02-2019 6.28,1550000000000.0,3.0484161,6.5473175,8.6098175,-0.01802063,-0.24641418,0.05847168,10.60530034,76.13612386,11.62,0
19-02-2019 6.28,1550000000000.0,-0.67456055,7.363739,2.8613433999999995,0.17053223,0.30752563,-0.050186157,10.60530034,76.13612386,11.62,0
19-02-2019 6.28,1550000000000.0,3.0364532000000004,4.0357970000000005,15.871429000000001,-0.054229735999999994,-0.07064819,-0.024612427000000003,10.60530034,76.13612386,11.62,0
19-02-2019 6.28,1550000000000.0,0.9175873,5.1945953000000005,9.354416,0.32180786,0.25746155,-0.05657959,10.60530034,76.13612386,11.62,0
19-02-2019 6.28,1550000000000.0,0.7978668000000001,7.3924713,3.1989136,0.39956665,0.19140625,-0.03526306,10.60530034,76.13612386,11.62,0
19-02-2019 6.28,1550000000000.0,0.89364624,3.4683838,10.369553,-0.2864685,-0.003540039,-0.020355225,10.60530034,76.13612386,11.62,0
19-02-2019 6.28,1550000000000.0,1.070816,7.512192,6.9961243,0.09596252400000001,0.03375244,0.036102295,10.60530034,76.13612386,11.62,0
19-02-2019 6.28,1550000000000.0,1.0037689,6.173828,9.850006,-0.08299255,0.09553528,-0.024612427000000003,10.60530034,76.13612386,11.62,0
19-02-2019 6.28,1550000000000.0,0.33100890000000005,6.4874725,5.9139404,0.15774536,0.11683655,-0.07788086,10.60530034,76.13612386,11.62,0
19-02-2019 6.28,1550000000000.0,0.61112976,5.7356873,9.445389,-0.11921692,-0.001403809,-0.020355225,10.60530034,76.13612386,11.62,0
19-02-2019 6.28,1550000000000.0,0.70210266,6.544922,8.640945,0.06933594,0.049728394,-0.024612427000000003,10.60530034,76.13612386,11.62,0
19-02-2019 6.28,1550000000000.0,0.7116852,5.762023999999999,6.050415,0.046966553,0.067840576,-0.041656494,10.60530034,76.13612386,11.62,0
19-02-2019 6.28,1550000000000.0,0.7523804000000001,6.0373535,9.17485,0.08956909,-0.004592896,-0.059768677,10.60530034,76.13612386,11.62,0
19-02-2019 6.28,1550000000000.0,0.000595,4.121994,9.311325,0.025665282999999997,0.10406494,-0.06616211,10.60530034,76.13612386,11.62,0
19-02-2019 6.28,1550000000000.0,-0.7080841,6.611969,6.177307,0.30262756,0.01777649,-0.010772705,10.60530034,76.13612386,11.62,0
19-02-2019 6.28,1550000000000.0,0.69252014,4.3446503,12.383072,-0.12347412,-0.10899353,-0.013961791999999999,10.60530034,76.13612386,11.62,0
19-02-2019 6.28,1550000000000.0,-0.9115905999999999,6.372543299999999,5.9019775,0.29837036,-0.016311646000000003,-0.0043792729999999995,10.60530034,76.13612386,11.62,0
19-02-2019 6.28,1550000000000.0,0.8816681000000001,5.553726,9.881134,-0.049972534000000006,-0.11645508,0.016921997,10.60530034,76.13612386,11.62,0
19-02-2019 6.28,1550000000000.0,-0.12390137,6.157074,9.232315,0.059753417999999996,-0.010986328,-0.016098022,10.60530034,76.13612386,11.62,0
19-02-2019 6.28,1550000000000.0,0.65182495,9.872864,1.3745421999999998,0.34629822,0.05079651,-0.02355957,10.60530034,76.13612386,11.62,0
19-02-2019 6.28,1550000000000.0,0.5488739,2.9009552000000003,14.439697,-0.22148132,0.001800537,-0.060836792,10.60530034,76.13612386,11.62,0
19-02-2019 6.28,1550000000000.0,2.6054993,6.698150599999999,7.6976320000000005,0.3409729,-0.020584106,0.014801025,10.60530034,76.13612386,11.62,0
19-02-2019 6.28,1550000000000.0,-0.81822205,5.759628299999999,8.863602,0.13218689,0.19354248,-0.02355957,10.60530034,76.13612386,11.62,0
19-02-2019 6.28,1550000000000.0,1.6214752000000001,3.5976714999999997,10.503632000000001,-0.005233765,-0.088760376,-0.04698181,10.60530034,76.13612386,11.62,0
19-02-2019 6.28,1550000000000.0,-2.269104,9.010956,1.7911377,0.49864197,0.15092468,-0.050186157,10.60530034,76.13612386,11.62,0
19-02-2019 6.28,1550000000000.0,0.9415283000000001,0.33197020000000005,19.048538,-0.741333,-0.31140137,0.044631958,10.60530034,76.13612386,11.62,0
19-02-2019 6.28,1550000000000.0,-0.6194916,12.312561,-2.0707245,0.46455383,-0.041885376,0.01159668,10.60530034,76.13612386,11.62,0
19-02-2019 6.28,1550000000000.0,-2.7335814999999997,4.4093018,10.520386,-0.67529297,-0.047210693,-0.065093994,10.60530034,76.13612386,11.62,0
19-02-2019 6.28,1550000000000.0,3.2686919999999997,12.767456,-2.1832428,-0.169281,-0.41152954,0.01159668,10.60530034,76.13612386,11.62,0
19-02-2019 6.28,1550000000000.0,-5.4653625,10.042862,-2.1233826000000002,-0.31523132,0.41085815,-0.17481995,10.60530034,76.13612386,11.62,0
19-02-2019 6.28,1550000000000.0,7.8799133,5.929611,14.118881,-0.9128417999999999,-0.6022185999999999,0.06272888,10.60530034,76.13612386,11.62,0
19-02-2019 6.28,1550000000000.0,-1.6585846000000002,12.042007,-6.44014,0.6488341999999999,0.7975464,-0.19400024,10.60530034,76.13612386,11.62,0
19-02-2019 6.28,1550000000000.0,5.605423,-0.55148315,19.539351999999997,-0.63586426,-0.09727478,-0.057647705,10.60530034,76.13612386,11.62,0
19-02-2019 6.28,1550000000000.0,3.6349945,8.608734,5.068786599999999,0.85549927,0.4033966,-0.09173584,10.60530034,76.13612386,11.62,0
19-02-2019 6.28,1550000000000.0,0.165802,3.9208832,10.850783999999999,0.21847534,0.53549194,-0.12475586,10.60530034,76.13612386,11.62,0
19-02-2019 6.28,1550000000000.0,6.553528,-0.5131836,21.014175,-0.30563354,-0.37211609999999995,0.07551575,10.60530034,76.13612386,11.62,0
19-02-2019 6.28,1550000000000.0,-4.392761,11.424316000000001,-1.0052948,1.1516418,0.5940857,-0.13327026,10.60530034,76.13612386,11.62,0
19-02-2019 6.28,1550000000000.0,2.7371673999999997,-3.0749817000000004,22.354935,-1.092865,-0.626709,0.09576416,10.60530034,76.13612386,11.62,0
19-02-2019 6.28,1550000000000.0,-3.2435455,14.110610999999999,-4.3883057,0.8160858,0.04547119,0.006271362,10.60530034,76.13612386,11.62,0
19-02-2019 6.28,1550000000000.0,-2.7599182,4.418869,6.864441,-0.727478,-0.23895264,0.016921997,10.60530034,76.13612386,11.62,0
19-02-2019 6.28,1550000000000.0,2.0979156000000003,8.582397,5.4398956,-0.2864685,-0.5542755,0.10748291,10.60530034,76.13612386,11.62,0
19-02-2019 6.28,1550000000000.0,-3.7894135,9.176163,0.25883484,0.05015564,0.28089905,-0.08320618,10.60530034,76.13612386,11.62,0
19-02-2019 6.28,1550000000000.0,4.147354,4.734909,9.026413,-0.57514954,-0.49461365,0.08830261,10.60530034,76.13612386,11.62,0
19-02-2019 6.28,1550000000000.0,-2.1398162999999997,10.543242999999999,-0.25830078,0.43258667,0.41192627,-0.13859558,10.60530034,76.13612386,11.62,0
19-02-2019 6.28,1550000000000.0,3.8217468,2.6687164,12.588974,-0.41322327,-0.2006073,0.020126343,10.60530034,76.13612386,11.62,0
19-02-2019 6.28,1550000000000.0,0.9870148000000001,5.967926,9.153305,0.15455627,0.21804810000000002,-0.022491455,10.60530034,76.13612386,11.62,0
19-02-2019 6.28,1550000000000.0,2.4714202999999997,5.2424774,10.625732000000001,0.20568848,0.12750244,-0.03314209,10.60530034,76.13612386,11.62,0
19-02-2019 6.28,1550000000000.0,1.5089417,4.2153625,9.512436,-0.0158844,0.08807373,-0.017166138,10.60530034,76.13612386,11.62,0
19-02-2019 6.28,1550000000000.0,0.36930847,6.4276123,7.8077545,0.31541443,0.13175964,-0.060836792,10.60530034,76.13612386,11.62,0
19-02-2019 6.28,1550000000000.0,0.3501587,4.098053,9.979294,-0.14265442,-0.049331665,0.024383545,10.60530034,76.13612386,11.62,0
19-02-2019 6.28,1550000000000.0,0.8433533000000001,7.4235992,4.522918700000001,0.12898254,-0.063186646,0.053146362,10.60530034,76.13612386,11.62,0
19-02-2019 6.28,1550000000000.0,0.31184387,4.940811,7.096679700000001,-0.15437317,-0.019515991,-0.040603638,10.60530034,76.13612386,11.62,0
19-02-2019 6.28,1550000000000.0,0.07482910000000001,5.9415894,5.5859375,-0.044647217,-0.06211853,0.005203247,10.60530034,76.13612386,11.62,0
19-02-2019 6.28,1550000000000.0,0.92715454,7.828216599999999,5.2172394,0.09170532,-0.034423828,0.012664795,10.60530034,76.13612386,11.62,0
19-02-2019 6.28,1550000000000.0,-0.08798218,1.7589111000000002,13.211472,-0.14158629999999997,-0.003540039,-0.025680542,10.60530034,76.13612386,11.62,0
19-02-2019 6.28,1550000000000.0,3.1441956,6.070876999999999,9.940994,0.28877258,-0.10685730000000002,0.071258545,10.60530034,76.13612386,11.62,0
19-02-2019 6.28,1550000000000.0,-0.8206024,2.9440459999999997,12.292099,0.23764038,0.23188782,-0.03526306,10.60530034,76.13612386,11.62,0
19-02-2019 6.28,1550000000000.0,2.8951874,4.5457764,10.355194000000001,0.21847534,-0.16865539999999998,0.036102295,10.60530034,76.13612386,11.62,0
19-02-2019 6.28,1550000000000.0,-2.8006134,6.1355133,6.854873700000001,0.47946167,0.21377563,-0.08320618,10.60530034,76.13612386,11.62,0
19-02-2019 6.28,1550000000000.0,1.537674,3.2528992000000003,11.739044,-0.17567444,-0.3497467,0.063797,10.60530034,76.13612386,11.62,0
19-02-2019 6.28,1550000000000.0,-1.2707214,7.663025,5.643402,0.19503784,-0.06425476,0.019058228,10.60530034,76.13612386,11.62,0
19-02-2019 6.28,1550000000000.0,0.44352722,6.5832367,4.831772,0.018203735,-0.110061646,-0.027816772000000003,10.60530034,76.13612386,11.62,0
