TIME,Mills,Ax,Ay,Az,Gx,Gy,Gz,Lat,Lon,Speed
19-02-2019 6.28,1.55E+12,0.30467224,6.8753204,3.5077667,-0.48353577,-0.44561768,0.033966064,10.60752876,76.13738339,0.34
19-02-2019 6.28,1.55E+12,3.2662964,4.3015594,12.71109,-0.38980103,-0.38490295,0.040359497,10.60752876,76.13738339,0.34
19-02-2019 6.28,1.55E+12,-0.0688324,5.7261047,7.3169403,0.14709473,0.35440063,-0.03314209,10.60752876,76.13738339,0.34
19-02-2019 6.28,1.55E+12,2.1170807,7.4714813,5.9259186,0.13537598,0.14027405,0.041427612,10.60752876,76.13738339,0.34
19-02-2019 6.28,1.55E+12,1.4682465,3.248108,11.324844,-0.2907257,0.075302124,-0.050186157,10.60752876,76.13738339,0.34
19-02-2019 6.28,1.55E+12,0.16340637,6.2265015,6.2658997,0.18331909,0.14666748,-0.07148743,10.60752876,76.13738339,0.34
19-02-2019 6.28,1.55E+12,1.4131775,3.5497742,11.006409,-0.13412476,0.002853394,0.02331543,10.60752876,76.13738339,0.34
19-02-2019 6.28,1.55E+12,-0.07601929,7.054886,5.1477966,0.31967163,0.12536621,-0.004379273,10.60752876,76.13738339,0.34
19-02-2019 6.28,1.55E+12,0.07003784,3.3079681,9.842834,-0.22041321,0.009246826,-0.049118042,10.60752876,76.13738339,0.34
19-02-2019 6.28,1.55E+12,0.31184387,5.967926,3.6418457,0.19290161,-0.007797241,-0.02142334,10.60752876,76.13738339,0.34
19-02-2019 6.28,1.55E+12,-0.40881348,5.165863,8.087875,-0.18525696,0.05079651,-0.038467407,10.60752876,76.13738339,0.34
19-02-2019 6.28,1.55E+12,0.41958618,4.165085,12.418991,-0.19059753,-0.12284851,-0.038467407,10.60752876,76.13738339,0.34
19-02-2019 6.28,1.55E+12,-0.53330994,7.133896,4.793457,0.32286072,0.20100403,0.005203247,10.60752876,76.13738339,0.34
19-02-2019 6.28,1.55E+12,0.70928955,5.1036224,4.8772583,0.074661255,-0.030166626,0.024383545,10.60752876,76.13738339,0.34
19-02-2019 6.28,1.55E+12,-1.6777344,4.9192657,10.625732,-0.19165039,0.034820557,-0.17588806,10.60752876,76.13738339,0.34
19-02-2019 6.28,1.55E+12,1.9423065,4.426056,10.65686,-0.22254944,-0.20167542,-0.05230713,10.60752876,76.13738339,0.34
19-02-2019 6.28,1.55E+12,-1.4048004,8.287903,1.6115723,0.40275574,0.3288269,-0.037399292,10.60752876,76.13738339,0.34
19-02-2019 6.28,1.55E+12,2.2343903,6.2863464,6.711212,-0.04145813,-0.119644165,-0.037399292,10.60752876,76.13738339,0.34
19-02-2019 6.28,1.55E+12,-1.0480652,4.6822357,7.1708984,-0.12986755,0.19140625,-0.14498901,10.60752876,76.13738339,0.34
19-02-2019 6.28,1.55E+12,3.189682,4.457184,9.955353,-0.15756226,-0.10366821,-0.039535522,10.60752876,76.13738339,0.34
19-02-2019 6.28,1.55E+12,-1.6657562,5.683014,7.0607758,0.109817505,0.33096313,-0.08639526,10.60752876,76.13738339,0.34
19-02-2019 6.28,1.55E+12,2.691681,7.600769,8.676849,0.10021973,-0.07597351,-0.003311157,10.60752876,76.13738339,0.34
19-02-2019 6.28,1.55E+12,0.1083374,4.153122,11.339203,-0.21508789,0.12110901,-0.12582397,10.60752876,76.13738339,0.34
19-02-2019 6.28,1.55E+12,3.1082764,7.584015,3.505371,0.072525024,-0.008865356,-0.06616211,10.60752876,76.13738339,0.34
19-02-2019 6.28,1.55E+12,-0.641037,6.0062256,3.7328339,-0.15756226,0.20632935,-0.13008118,10.60752876,76.13738339,0.34
19-02-2019 6.28,1.55E+12,2.1170807,5.141922,11.023178,-0.23001099,-0.119644165,-0.090667725,10.60752876,76.13738339,0.34
19-02-2019 6.28,1.55E+12,0.1777649,4.2464905,12.220276,-0.06808472,0.07849121,-0.060836792,10.60752876,76.13738339,0.34
19-02-2019 6.28,1.55E+12,1.4897919,7.351776,3.7950745,0.22592163,-0.004592896,-0.003311157,10.60752876,76.13738339,0.34
19-02-2019 6.28,1.55E+12,0.20649719,5.386139,4.187729,-0.14051819,0.059310913,-0.016098022,10.60752876,76.13738339,0.34
19-02-2019 6.28,1.55E+12,1.477829,3.4635925,13.000778,-0.1330719,-0.096206665,0.00201416,10.60752876,76.13738339,0.34
19-02-2019 6.28,1.55E+12,0.43634033,1.2657166,15.038254,-0.0861969,0.035888672,0.007339478,10.60752876,76.13738339,0.34
19-02-2019 6.28,1.55E+12,-0.37528992,9.360504,4.2571564,0.5774689,0.09234619,0.042495728,10.60752876,76.13738339,0.34
19-02-2019 6.28,1.55E+12,1.6980896,6.6502686,10.398285,-0.169281,-0.19847107,0.042495728,10.60752876,76.13738339,0.34
19-02-2019 6.28,1.55E+12,-2.5396423,6.4826813,7.721573,0.26960754,-0.004592896,-0.03314209,10.60752876,76.13738339,0.34
19-02-2019 6.28,1.55E+12,2.2200317,1.1675568,14.880234,-0.27368164,-0.39341736,0.092559814,10.60752876,76.13738339,0.34
19-02-2019 6.28,1.55E+12,-2.5372467,8.11792,2.0784302,0.45069885,0.040145874,0.055282593,10.60752876,76.13738339,0.34
19-02-2019 6.28,1.55E+12,0.2519989,4.624771,9.988876,-0.27900696,-0.3540039,0.106414795,10.60752876,76.13738339,0.34
19-02-2019 6.28,1.55E+12,-1.0744019,5.228119,11.774948,0.048034668,-0.21446228,0.082977295,10.60752876,76.13738339,0.34
19-02-2019 6.28,1.55E+12,1.1929169,7.002228,5.954651,0.32180786,-0.1494751,0.12878418,10.60752876,76.13738339,0.34
19-02-2019 6.28,1.55E+12,-1.490982,7.655838,10.015213,0.19929504,-0.018447876,0.08509827,10.60752876,76.13738339,0.34
19-02-2019 6.28,1.55E+12,3.280655,8.297485,9.325684,0.15988159,-0.3529358,0.17671204,10.60752876,76.13738339,0.34
19-02-2019 6.28,1.55E+12,-2.4558563,6.643097,4.2380066,0.05229187,0.09660339,0.059539795,10.60752876,76.13738339,0.34
19-02-2019 6.28,1.55E+12,1.9830017,7.212906,7.355255,-0.008422852,-0.34121704,0.16394043,10.60752876,76.13738339,0.34
19-02-2019 6.28,1.55E+12,-2.300232,7.8713226,2.9642944,0.007553101,-0.08023071,0.07765198,10.60752876,76.13738339,0.34
19-02-2019 6.28,1.55E+12,-0.715271,4.8043365,11.612152,-0.44198608,-0.26239014,0.18737793,10.60752876,76.13738339,0.34
19-02-2019 6.28,1.55E+12,3.1130676,10.782669,3.2372284,-0.27793884,-0.25813293,0.2598114,10.60752876,76.13738339,0.34
19-02-2019 6.28,1.55E+12,-2.6737213,11.287842,-3.6652527,0.001159668,0.39593506,0.057403564,10.60752876,76.13738339,0.34
19-02-2019 6.28,1.55E+12,6.091446,5.062912,15.047821,-0.75730896,-0.26559448,0.17245483,10.60752876,76.13738339,0.34
19-02-2019 6.28,1.55E+12,0.4339447,7.6223145,6.093506,0.1918335,0.4310913,-0.09918213,10.60752876,76.13738339,0.34
19-02-2019 6.28,1.55E+12,3.328537,6.3414154,10.280975,-0.2896576,0.12750244,-0.08001709,10.60752876,76.13738339,0.34
19-02-2019 6.28,1.55E+12,3.0220795,9.707672,5.3489075,0.2664032,0.11683655,0.03717041,10.60752876,76.13738339,0.34
19-02-2019 6.28,1.55E+12,2.3445282,6.980667,4.2380066,-0.17460632,0.29794312,-0.005447388,10.60752876,76.13738339,0.34
19-02-2019 6.28,1.55E+12,1.4131775,5.050949,6.828537,-0.27261353,0.07316589,0.052078247,10.60752876,76.13738339,0.34
19-02-2019 6.28,1.55E+12,1.9614563,8.022156,6.165344,-0.20869446,0.067840576,0.009475708,10.60752876,76.13738339,0.34
19-02-2019 6.28,1.55E+12,0.3310089,4.1243896,12.462082,-0.345047,0.06251526,0.01373291,10.60752876,76.13738339,0.34
19-02-2019 6.28,1.55E+12,1.9853973,10.502548,4.5851593,0.12365723,0.034820557,0.07765198,10.60752876,76.13738339,0.34
19-02-2019 6.28,1.55E+12,0.517746,5.8601837,7.9801483,-0.31629944,0.05079651,0.024383545,10.60752876,76.13738339,0.34
19-02-2019 6.28,1.55E+12,2.8568878,7.912018,4.3960266,-0.24385071,-0.023773193,0.03929138,10.60752876,76.13738339,0.34
19-02-2019 6.28,1.55E+12,-0.557251,6.6191406,4.8700714,-0.12879944,0.16584778,0.05101013,10.60752876,76.13738339,0.34
19-02-2019 6.28,1.55E+12,3.6278229,9.765121,3.7519836,-0.27581787,-0.1537323,0.12452698,10.60752876,76.13738339,0.34
19-02-2019 6.28,1.55E+12,-1.1965027,8.797867,3.986618,-0.1607666,0.24893188,0.016921997,10.60752876,76.13738339,0.34
19-02-2019 6.28,1.55E+12,3.7858276,8.508179,6.354477,-0.4356079,-0.14733887,0.08616638,10.60752876,76.13738339,0.34
19-02-2019 6.28,1.55E+12,-2.1565704,7.248825,8.760651,-0.16821289,0.2926178,0.021194458,10.60752876,76.13738339,0.34
19-02-2019 6.28,1.55E+12,3.1513672,8.340576,5.547638,0.02671814,-0.24320984,0.17352295,10.60752876,76.13738339,0.34
19-02-2019 6.28,1.55E+12,-1.2180481,6.7675934,6.500519,-0.10110474,0.16159058,0.057403564,10.60752876,76.13738339,0.34
19-02-2019 6.28,1.55E+12,3.9079437,6.1403046,9.9457855,-0.028671265,-0.16545105,0.13943481,10.60752876,76.13738339,0.34
19-02-2019 6.28,1.55E+12,0.16819763,5.596817,5.5931244,0.12260437,0.26278687,0.03929138,10.60752876,76.13738339,0.34
19-02-2019 6.28,1.55E+12,1.240799,4.3087463,12.859528,0.076797485,0.063583374,0.0914917,10.60752876,76.13738339,0.34
19-02-2019 6.28,1.55E+12,4.075531,3.0374298,15.12204,0.046966553,-0.13136292,0.14901733,10.60752876,76.13738339,0.34
19-02-2019 6.28,1.55E+12,-2.4247284,7.64386,2.085617,0.67652893,0.37677002,0.029708862,10.60752876,76.13738339,0.34
19-02-2019 6.28,1.55E+12,4.087509,3.6287842,13.75975,-0.31095886,-0.49142456,0.22891235,10.60752876,76.13738339,0.34
19-02-2019 6.28,1.55E+12,-2.5204926,5.754837,7.733536,0.34950256,0.102996826,0.09788513,10.60752876,76.13738339,0.34
19-02-2019 6.28,1.55E+12,0.6470337,4.1794586,8.751068,0.033111572,-0.2240448,0.23104858,10.60752876,76.13738339,0.34
19-02-2019 6.28,1.55E+12,-2.1062927,6.0972137,6.658539,0.3835907,-0.100479126,0.18417358,10.60752876,76.13738339,0.34
19-02-2019 6.28,1.55E+12,0.39085388,3.3797913,14.063812,-0.20869446,-0.29328918,0.20974731,10.60752876,76.13738339,0.34
19-02-2019 6.28,1.55E+12,0.2639618,6.868149,6.038437,0.32818604,-0.16438293,0.22998047,10.60752876,76.13738339,0.34
19-02-2019 6.28,1.55E+12,-1.3473358,6.9184265,4.4869995,0.10021973,0.04866028,0.17565918,10.60752876,76.13738339,0.34
19-02-2019 6.28,1.55E+12,1.1091156,4.773224,10.905853,-0.10217285,-0.26452637,0.24702454,10.60752876,76.13738339,0.34
19-02-2019 6.28,1.55E+12,-0.6506195,6.5592957,7.7239685,0.1875763,0.122161865,0.10960388,10.60752876,76.13738339,0.34
19-02-2019 6.28,1.55E+12,2.8281555,6.9112396,7.441452,0.09384155,-0.10580444,0.15541077,10.60752876,76.13738339,0.34
19-02-2019 6.28,1.55E+12,-0.23162842,7.0572815,4.757553,0.10235596,0.20100403,0.012664795,10.60752876,76.13738339,0.34
19-02-2019 6.28,1.55E+12,1.5472565,5.4483795,9.189209,-0.06594849,-0.06958008,0.07232666,10.60752876,76.13738339,0.34
19-02-2019 6.28,1.55E+12,1.6502075,5.1155853,8.832474,0.00328064,0.065704346,0.014801025,10.60752876,76.13738339,0.34
19-02-2019 6.28,1.55E+12,1.829773,5.857788,9.459763,0.10128784,0.14027405,0.004150391,10.60752876,76.13738339,0.34
19-02-2019 6.28,1.55E+12,2.6198578,7.3805084,4.2810974,0.20568848,0.08381653,0.10960388,10.60752876,76.13738339,0.34
19-02-2019 6.28,1.55E+12,-0.08798218,2.7094116,17.082901,-0.049972534,0.18501282,0.05847168,10.60752876,76.13738339,0.34
19-02-2019 6.28,1.55E+12,4.8249207,4.959961,13.731018,0.355896,-0.09088135,0.20547485,10.60752876,76.13738339,0.34
19-02-2019 6.28,1.55E+12,-0.5141449,7.279953,2.41362,0.5465698,0.5109863,0.12771606,10.60752876,76.13738339,0.34
19-02-2019 6.28,1.55E+12,3.6038818,6.9974365,7.300186,-0.07234192,-0.2006073,0.12452698,10.60752876,76.13738339,0.34
19-02-2019 6.28,1.55E+12,-1.4024048,0.3391571,9.802124,-0.11921692,0.1477356,-0.05230713,10.60752876,76.13738339,0.34
19-02-2019 6.28,1.55E+12,1.877655,9.468246,4.6282654,0.6051636,-0.058929443,0.14901733,10.60752876,76.13738339,0.34
19-02-2019 6.28,1.55E+12,0.5201416,2.252121,13.800446,-0.0158844,0.03907776,0.102142334,10.60752876,76.13738339,0.34
19-02-2019 6.28,1.55E+12,-0.26275635,7.0644684,4.9921722,0.41235352,0.16584778,-0.003311157,10.60752876,76.13738339,0.34
19-02-2019 6.28,1.55E+12,2.7299957,0.42295837,16.888962,-0.08938599,-0.007797241,0.040359497,10.60752876,76.13738339,0.34
19-02-2019 6.28,1.55E+12,2.9933472,10.840118,0.35461426,0.91941833,0.30859375,-0.002243042,10.60752876,76.13738339,0.34
19-02-2019 6.28,1.55E+12,1.0085602,1.4093628,16.110855,-0.20550537,0.4076538,-0.06829834,10.60752876,76.13738339,0.34
19-02-2019 6.28,1.55E+12,6.127365,10.931107,6.6489716,0.5913086,-0.08236694,-0.01928711,10.60752876,76.13738339,0.34
19-02-2019 6.28,1.55E+12,0.11791992,2.9248962,10.259415,-0.3834076,0.7048645,-0.17481995,10.60707003,76.13710629,8.14
19-02-2019 6.28,1.55E+12,6.7306976,14.474518,-1.8743896,0.68185425,-0.13136292,0.0914917,10.60707003,76.13710629,8.14
19-02-2019 6.28,1.55E+12,-2.6258392,-1.0973663,17.030228,-0.7860718,0.58343506,-0.15777588,10.60707003,76.13710629,8.14
19-02-2019 6.28,1.55E+12,8.107376,10.971802,5.8085938,0.8065033,-0.3252411,0.2086792,10.60707003,76.13710629,8.14
19-02-2019 6.28,1.55E+12,-2.6282349,4.608017,8.080704,-0.004165649,0.7485504,-0.037399292,10.60707003,76.13710629,8.14
19-02-2019 6.28,1.55E+12,5.507263,7.12912,8.672073,0.049087524,-0.3678589,0.07658386,10.60707003,76.13710629,8.14
19-02-2019 6.28,1.55E+12,-3.550003,3.9663696,9.771011,-0.22468567,0.43536377,-0.12687683,10.60707003,76.13710629,8.14
19-02-2019 6.28,1.55E+12,4.9302673,10.241577,3.7783203,0.470932,-0.24002075,0.17245483,10.60707003,76.13710629,8.14
19-02-2019 6.28,1.55E+12,-2.8748322,2.575348,12.311249,-0.08406067,0.29048157,-0.022491455,10.60707003,76.13710629,8.14
19-02-2019 6.28,1.55E+12,2.5839386,6.6622467,8.207596,0.37612915,-0.13775635,0.03717041,10.60707003,76.13710629,8.14
19-02-2019 6.28,1.55E+12,-0.24360657,5.8673706,7.417511,0.21954346,0.21484375,-0.038467407,10.60707003,76.13710629,8.14
19-02-2019 6.28,1.55E+12,0.98461914,8.726044,5.1118927,0.18331909,0.020965576,-0.114105225,10.60707003,76.13710629,8.14
19-02-2019 6.28,1.55E+12,-1.2371979,2.5777283,12.471664,-0.30670166,0.063583374,-0.17163086,10.60707003,76.13710629,8.14
19-02-2019 6.28,1.55E+12,2.8161774,9.839355,5.4877777,0.5305939,-0.024841309,-0.01184082,10.60707003,76.13710629,8.14
19-02-2019 6.28,1.55E+12,-1.9195557,4.900116,7.4198914,-0.03186035,0.2691803,-0.07041931,10.60707003,76.13710629,8.14
19-02-2019 6.28,1.55E+12,1.1019287,7.011795,7.721573,0.06187439,-0.14414978,-0.041656494,10.60707003,76.13710629,8.14
19-02-2019 6.28,1.55E+12,1.0995331,6.552109,8.262665,-0.09259033,0.015640259,-0.050186157,10.60707003,76.13710629,8.14
19-02-2019 6.28,1.55E+12,-0.4806366,9.319809,3.1821594,0.17373657,0.17329407,-0.0693512,10.60707003,76.13710629,8.14
19-02-2019 6.28,1.55E+12,0.5991516,5.5896454,7.9250793,-0.35676575,-0.08023071,-0.06829834,10.60707003,76.13710629,8.14
19-02-2019 6.28,1.55E+12,-0.5500641,6.465912,6.7399445,0.10661316,0.15838623,-0.10983276,10.60707003,76.13710629,8.14
19-02-2019 6.28,1.55E+12,0.47225952,8.153824,4.807831,0.133255,-0.007797241,0.01586914,10.60707003,76.13710629,8.14
19-02-2019 6.28,1.55E+12,0.11791992,4.4356384,12.181961,-0.32055664,0.049728394,-0.05657959,10.60707003,76.13710629,8.14
19-02-2019 6.28,1.55E+12,2.5432434,8.795471,7.087097,0.21847534,-0.003540039,-0.041656494,10.60707003,76.13710629,8.14
19-02-2019 6.28,1.55E+12,-0.9906006,7.663025,4.218857,0.036315918,0.25639343,-0.10131836,10.60707003,76.13710629,8.14
19-02-2019 6.28,1.55E+12,1.9590607,5.74527,8.437439,-0.054229736,-0.1026001,-0.08213806,10.60707003,76.13710629,8.14
19-02-2019 6.28,1.55E+12,-1.091156,5.189804,8.9857025,0.07359314,0.19673157,-0.15777588,10.60707003,76.13710629,8.14
19-02-2019 6.28,1.55E+12,-0.35134888,6.963913,5.183716,0.24617004,-0.088760376,-0.07255554,10.60707003,76.13710629,8.14
19-02-2019 6.28,1.55E+12,0.18495178,4.4236603,7.173294,-0.08087158,0.001800537,-0.12582397,10.60707003,76.13710629,8.14
19-02-2019 6.28,1.55E+12,-0.3034668,4.7085724,9.208374,0.11407471,0.04121399,-0.02142334,10.60707003,76.13710629,8.14
19-02-2019 6.28,1.55E+12,2.4594421,4.9815063,13.649612,-0.12667847,-0.084487915,0.01586914,10.60707003,76.13710629,8.14
19-02-2019 6.28,1.55E+12,-2.66893,5.0174255,8.566727,0.1875763,0.18289185,-0.17907715,10.60707003,76.13710629,8.14
19-02-2019 6.28,1.55E+12,1.3796692,5.6734314,10.489258,0.021392822,-0.24641418,-0.06402588,10.60707003,76.13710629,8.14
19-02-2019 6.28,1.55E+12,-1.6490021,2.5298462,7.7957916,0.11088562,0.010314941,-0.12901306,10.60707003,76.13710629,8.14
19-02-2019 6.28,1.55E+12,-0.5381012,7.0620728,2.7128906,0.30262756,-0.12284851,-0.11943054,10.60707003,76.13710629,8.14
19-02-2019 6.28,1.55E+12,-0.013763428,1.1196594,15.342316,-0.30351257,-0.17503357,-0.016098022,10.60707003,76.13710629,8.14
19-02-2019 6.28,1.55E+12,1.2312164,8.797867,4.913162,0.54977417,-0.065322876,-0.040603638,10.60707003,76.13710629,8.14
19-02-2019 6.28,1.55E+12,-0.92355347,2.192276,10.573059,-0.13626099,0.04333496,-0.07041931,10.60707003,76.13710629,8.14
19-02-2019 6.28,1.55E+12,2.3924103,5.0485535,9.454971,0.12260437,-0.21551514,0.06593323,10.60707003,76.13710629,8.14
19-02-2019 6.28,1.55E+12,-1.8237762,5.3262787,7.470169,0.09916687,0.09234619,-0.010772705,10.60707003,76.13710629,8.14
19-02-2019 6.28,1.55E+12,1.7076721,5.6734314,8.940216,-0.03186035,-0.28263855,0.07019043,10.60707003,76.13710629,8.14
19-02-2019 6.28,1.55E+12,-0.43515015,4.670273,9.141327,-0.06808472,-0.03868103,0.019058228,10.60707003,76.13710629,8.14
19-02-2019 6.28,1.55E+12,1.3772736,8.165802,3.615509,0.29623413,-0.11538696,0.06486511,10.60707003,76.13710629,8.14
19-02-2019 6.28,1.55E+12,-0.720047,2.4532318,11.664825,-0.15223694,0.007125855,0.029708862,10.60707003,76.13710629,8.14
19-02-2019 6.28,1.55E+12,2.4402924,7.7611847,6.462219,0.33457947,-0.17077637,0.07872009,10.60707003,76.13710629,8.14
19-02-2019 6.28,1.55E+12,-1.9626465,3.805954,10.731079,-0.0435791,0.13920593,0.003082275,10.60707003,76.13710629,8.14
19-02-2019 6.28,1.55E+12,2.6078796,7.018982,9.993668,0.1566925,-0.29115295,0.14050293,10.60707003,76.13710629,8.14
19-02-2019 6.28,1.55E+12,-0.7272339,6.731674,5.2220154,-0.014816284,0.06677246,0.059539795,10.60707003,76.13710629,8.14
19-02-2019 6.28,1.55E+12,1.4850006,9.556839,3.3808746,0.06613159,-0.181427,0.10534668,10.60707003,76.13710629,8.14
19-02-2019 6.28,1.55E+12,-0.35853577,2.8363037,15.742142,-0.44093323,-0.06744385,0.02331543,10.60707003,76.13710629,8.14
19-02-2019 6.28,1.55E+12,3.007721,10.624649,1.8725281,0.6424408,-0.04081726,0.09043884,10.60707003,76.13710629,8.14
19-02-2019 6.28,1.55E+12,-1.7064667,3.6311798,9.500458,-0.1607666,0.22763062,-0.045928955,10.60707003,76.13710629,8.14
19-02-2019 6.28,1.55E+12,3.0484161,4.4954834,15.191483,-0.07022095,-0.32737732,0.09895325,10.60707003,76.13710629,8.14
19-02-2019 6.28,1.55E+12,-2.3289642,9.532898,1.6977539,0.3100891,0.17224121,0.045684814,10.60707003,76.13710629,8.14
19-02-2019 6.28,1.55E+12,1.9614563,7.042923,4.0129547,-0.19911194,-0.26239014,0.04675293,10.60707003,76.13710629,8.14
19-02-2019 6.28,1.55E+12,-0.35134888,2.7884216,15.193878,-0.32481384,-0.012054443,-0.04486084,10.60707003,76.13710629,8.14
19-02-2019 6.28,1.55E+12,1.6549988,9.631058,6.019287,0.5540314,-0.020584106,0.045684814,10.60707003,76.13710629,8.14
19-02-2019 6.28,1.55E+12,-0.21008301,2.1348114,9.184418,-0.046783447,0.046539307,-0.038467407,10.60707003,76.13710629,8.14
19-02-2019 6.28,1.55E+12,1.18573,9.616684,2.444748,0.5135498,-0.088760376,0.022247314,10.60707003,76.13710629,8.14
19-02-2019 6.28,1.55E+12,1.8082275,3.1379852,13.616089,-0.27049255,-0.02696228,0.024383545,10.60707003,76.13710629,8.14
19-02-2019 6.28,1.55E+12,1.7914581,9.927933,3.4239807,0.5146179,0.102996826,-0.027816772,10.60707003,76.13710629,8.14
19-02-2019 6.28,1.55E+12,2.0165253,7.165024,9.694397,-0.35464478,0.1669159,-0.07469177,10.60707003,76.13710629,8.14
19-02-2019 6.28,1.55E+12,3.280655,9.597534,6.043228,0.11407471,0.038009644,0.00201416,10.60707003,76.13710629,8.14
19-02-2019 6.28,1.55E+12,1.8393555,9.939911,2.3609467,-0.20230103,0.31071472,-0.07362366,10.60707003,76.13710629,8.14
19-02-2019 6.28,1.55E+12,3.2615051,4.7875824,8.162094,-0.42601013,-0.039749146,0.008407593,10.60707003,76.13710629,8.14
19-02-2019 6.28,1.55E+12,1.7076721,10.090744,3.3210297,0.01499939,0.24041748,-0.04698181,10.60707003,76.13710629,8.14
19-02-2019 6.28,1.55E+12,0.72843933,3.9974976,8.873184,-0.42175293,0.102996826,-0.060836792,10.60707003,76.13710629,8.14
19-02-2019 6.28,1.55E+12,1.2360077,7.7396393,9.064713,0.10235596,0.032684326,-0.050186157,10.60707003,76.13710629,8.14
19-02-2019 6.28,1.55E+12,0.6494293,3.0637512,14.650391,-0.25131226,0.061447144,-0.004379273,10.60707003,76.13710629,8.14
19-02-2019 6.28,1.55E+12,1.0612335,8.69014,4.489395,0.45921326,0.04121399,-0.027816772,10.60707003,76.13710629,8.14
19-02-2019 6.28,1.55E+12,0.15621948,4.2536774,7.702408,-0.1415863,0.03161621,-0.05870056,10.60707003,76.13710629,8.14
19-02-2019 6.28,1.55E+12,-0.502182,5.723709,17.267242,0.16520691,-0.0791626,-0.026748657,10.60707003,76.13710629,8.14
19-02-2019 6.28,1.55E+12,3.8648376,4.418869,10.805298,0.36973572,-0.077041626,0.024383545,10.60707003,76.13710629,8.14
19-02-2019 6.28,1.55E+12,-2.269104,8.182556,5.7056427,0.738327,0.38528442,-0.12261963,10.60707003,76.13710629,8.14
19-02-2019 6.28,1.55E+12,4.216797,3.3127594,13.055847,-0.20657349,-0.46585083,0.029708862,10.60707003,76.13710629,8.14
19-02-2019 6.28,1.55E+12,-2.190094,9.8992,-1.4314728,0.32073975,0.23614502,-0.07255554,10.60707003,76.13710629,8.14
19-02-2019 6.28,1.55E+12,1.5233154,11.963013,4.8150024,-0.26089478,-0.3486786,0.03717041,10.60707003,76.13710629,8.14
19-02-2019 6.28,1.55E+12,2.145813,6.4683075,8.389557,-1.250534,-0.12496948,-0.025680542,10.60707003,76.13710629,8.14
19-02-2019 6.28,1.55E+12,-0.3321991,19.823166,-12.061722,0.6957092,0.34480286,-0.06616211,10.60707003,76.13710629,8.14
19-02-2019 6.28,1.55E+12,3.2998047,-0.14686584,20.00383,-1.6137848,-0.100479126,-0.12794495,10.60707003,76.13710629,8.14
19-02-2019 6.28,1.55E+12,3.5919037,11.232773,1.4966431,0.8704071,0.15625,0.003082275,10.60707003,76.13710629,8.14
19-02-2019 6.28,1.55E+12,1.4538879,5.0126343,10.060699,-0.19911194,0.33947754,-0.012893677,10.60707003,76.13710629,8.14
19-02-2019 6.28,1.55E+12,4.561554,6.5281677,8.851624,0.045898438,-0.13243103,0.028640747,10.60707003,76.13710629,8.14
19-02-2019 6.28,1.55E+12,2.4857788,8.27594,8.458984,-0.1650238,0.45133972,-0.05444336,10.60707003,76.13710629,8.14
19-02-2019 6.28,1.55E+12,5.5000763,11.579941,0.45277405,0.23977661,-0.056793213,0.047821045,10.60707003,76.13710629,8.14
19-02-2019 6.28,1.55E+12,-0.6578064,5.125168,10.89389,-0.5368042,0.4460144,-0.17163086,10.60707003,76.13710629,8.14
19-02-2019 6.28,1.55E+12,6.3787537,6.805893,11.636093,0.024597168,-0.33802795,0.15541077,10.60707003,76.13710629,8.14
19-02-2019 6.28,1.55E+12,-2.565979,10.454666,-1.0795135,0.098098755,0.4737091,9.46E-04,10.60707003,76.13710629,8.14
19-02-2019 6.28,1.55E+12,2.80661,5.003067,7.7479095,-0.5453186,-0.4051361,0.02331543,10.60707003,76.13710629,8.14
19-02-2019 6.28,1.55E+12,0.08200073,8.469864,11.430191,-0.23001099,0.059310913,-0.07255554,10.60707003,76.13710629,8.14
19-02-2019 6.28,1.55E+12,1.9351196,6.7436523,5.3369446,0.041641235,-0.009918213,0.07551575,10.60707003,76.13710629,8.14
19-02-2019 6.28,1.55E+12,-1.1127014,6.6622467,8.075912,-0.021209717,0.12004089,0.009475708,10.60707003,76.13710629,8.14
19-02-2019 6.28,1.55E+12,4.5280304,4.885742,10.369553,-0.12347412,-0.27624512,0.110672,10.60707003,76.13710629,8.14
19-02-2019 6.28,1.55E+12,-1.1342468,11.352478,2.3058777,0.018203735,0.31285095,-0.002243042,10.60707003,76.13710629,8.14
19-02-2019 6.28,1.55E+12,2.3373413,8.103546,9.088654,-0.43666077,-0.2517395,0.104278564,10.60707003,76.13710629,8.14
19-02-2019 6.28,1.55E+12,1.8441315,10.907166,0.780777,-0.49632263,0.06997681,-0.001174927,10.60707003,76.13710629,8.14
19-02-2019 6.28,1.55E+12,0.70928955,12.954208,-6.741806,0.024597168,0.13388062,0.028640747,10.60707003,76.13710629,8.14
19-02-2019 6.28,1.55E+12,3.6110535,6.2073517,12.126892,-1.202591,-0.100479126,-0.00970459,10.60707003,76.13710629,8.14
19-02-2019 6.28,1.55E+12,2.248764,12.779434,1.6929626,0.32713318,0.26704407,-0.013961792,10.60707003,76.13710629,8.14
19-02-2019 6.28,1.55E+12,3.0819397,6.9711,10.144501,-0.7466583,0.28302002,-0.04698181,10.60707003,76.13710629,8.14
19-02-2019 6.28,1.55E+12,3.0579987,9.350937,5.1358337,0.121536255,0.12643433,-0.02355957,10.60707003,76.13710629,8.14
19-02-2019 6.28,1.55E+12,3.0053253,12.360443,-2.358017,-0.31095886,0.36079407,-0.09385681,10.60707003,76.13710629,8.14
19-02-2019 6.28,1.55E+12,1.154602,8.582397,6.6417847,-0.55596924,0.024169922,-0.034210205,10.60707003,76.13710629,8.14
19-02-2019 6.28,1.55E+12,2.6031036,10.725204,1.958725,-0.6699524,0.009246826,0.01373291,10.60707003,76.13710629,8.14
19-02-2019 6.28,1.55E+12,-0.8948364,9.429947,3.9722443,-0.2427826,0.25213623,-0.07574463,10.60707003,76.13710629,8.14
19-02-2019 6.28,1.55E+12,3.7092133,9.066025,4.8581085,-0.42175293,-0.1068573,-0.025680542,10.60707003,76.13710629,8.14
19-02-2019 6.28,1.55E+12,-1.795044,8.046097,4.647415,-0.14372253,0.31710815,-0.08746338,10.60707003,76.13710629,8.14
19-02-2019 6.28,1.55E+12,5.1289825,8.089188,8.267441,-0.3141632,-0.17610168,0.045684814,10.60707003,76.13710629,8.14
19-02-2019 6.28,1.55E+12,-0.27233887,8.046097,5.5189056,0.06401062,0.3799591,-0.12901306,10.60707003,76.13710629,8.14
19-02-2019 6.28,1.55E+12,2.3972015,6.470703,5.272293,-0.21401978,0.038009644,-0.0927887,10.60707003,76.13710629,8.14
19-02-2019 6.28,1.55E+12,0.57281494,6.7364655,11.324844,-0.108566284,0.08595276,-0.03526306,10.60707003,76.13710629,8.14
19-02-2019 6.28,1.55E+12,1.2216492,7.509796,5.0113373,0.08956909,0.065704346,-0.016098022,10.60707003,76.13710629,8.14
19-02-2019 6.28,1.55E+12,0.6398468,7.344589,3.2420197,0.012878418,0.08595276,-0.008636475,10.60707003,76.13710629,8.14
19-02-2019 6.28,1.55E+12,2.49057,2.2569122,17.37738,-0.20869446,-0.04295349,9.46E-04,10.60707003,76.13710629,8.14
19-02-2019 6.28,1.55E+12,2.229599,7.4714813,5.777481,0.62220764,0.20205688,-0.051254272,10.60707003,76.13710629,8.14
19-02-2019 6.28,1.55E+12,-1.115097,2.3478851,12.780518,0.23551941,0.2734375,-0.11836243,10.60707003,76.13710629,8.14
19-02-2019 6.28,1.55E+12,5.0020905,4.054962,12.665588,0.22059631,-0.28157043,0.052078247,10.60707003,76.13710629,8.14
19-02-2019 6.28,1.55E+12,-3.2842407,3.9065247,10.9729,0.5188751,0.4300232,-0.09599304,10.60707003,76.13710629,8.14
19-02-2019 6.28,1.55E+12,5.801758,4.303955,10.671219,0.09277344,-0.4424286,0.113861084,10.60707003,76.13710629,8.14
19-02-2019 6.28,1.55E+12,-4.2490997,4.6271667,9.641724,0.2813263,0.42364502,-0.10983276,10.60707003,76.13710629,8.14
19-02-2019 6.28,1.55E+12,3.790619,6.2815704,9.936203,0.084243774,-0.46479797,0.10960388,10.60707003,76.13710629,8.14
19-02-2019 6.28,1.55E+12,-2.565979,9.319809,-2.1904297,-0.028671265,0.15838623,-0.039535522,10.60707003,76.13710629,8.14
19-02-2019 6.28,1.55E+12,-0.5500641,5.999054,6.3209534,-0.5155029,-0.27624512,0.042495728,10.60707003,76.13710629,8.14
19-02-2019 6.28,1.55E+12,3.455429,11.788223,-1.3117523,-0.5272217,-0.35614014,0.09681702,10.60707003,76.13710629,8.14
19-02-2019 6.28,1.55E+12,-6.432617,8.668579,3.0001984,-0.4345398,0.4534607,-0.15670776,10.60707003,76.13710629,8.14
19-02-2019 6.28,1.55E+12,8.629303,7.6342926,7.8436737,-0.7040405,-0.673584,0.12025452,10.60707003,76.13710629,8.14
19-02-2019 6.28,1.55E+12,-5.3672028,10.895187,-1.0914917,0.3377838,0.86039734,-0.23980713,10.60707003,76.13710629,8.14
19-02-2019 6.28,1.55E+12,5.4713593,5.6542816,12.893051,-0.35250854,-0.3018036,0.02758789,10.60707003,76.13710629,8.14
19-02-2019 6.28,1.55E+12,1.1977081,3.777237,16.220978,0.049087524,0.26490784,-0.04698181,10.60707003,76.13710629,8.14
19-02-2019 6.28,1.55E+12,-0.6314697,7.4834595,0.10560608,0.84484863,0.21058655,-0.059768677,10.60707003,76.13710629,8.14
19-02-2019 6.28,1.55E+12,0.809845,-0.80766296,18.366196,-0.59858704,-0.25813293,-0.025680542,10.60707003,76.13710629,8.14
19-02-2019 6.28,1.55E+12,-2.858078,4.766037,9.610596,0.68292236,0.011383057,-0.041656494,10.60707003,76.13710629,8.14
19-02-2019 6.28,1.55E+12,1.6023254,10.030884,4.623474,0.3399048,-0.28689575,0.028640747,10.60707003,76.13710629,8.14
19-02-2019 6.28,1.55E+12,-1.20607,-2.3112183,16.991913,-0.42282104,-0.057861328,-0.028884888,10.60707003,76.13710629,8.14
19-02-2019 6.28,1.55E+12,3.0460205,9.798645,3.3808746,0.7606964,-0.16438293,0.082977295,10.60707003,76.13710629,8.14
19-02-2019 6.28,1.55E+12,-1.5891418,2.8195496,14.624054,-0.345047,0.18182373,-0.036331177,10.60707003,76.13710629,8.14
19-02-2019 6.28,1.55E+12,3.7499237,11.050812,3.0983582,0.5731964,-0.22616577,0.07232666,10.60707003,76.13710629,8.14
19-02-2019 6.28,1.55E+12,-0.26036072,1.7996216,9.387939,-0.34399414,0.28408813,-0.05657959,10.60707003,76.13710629,8.14
19-02-2019 6.28,1.55E+12,4.3412933,9.489792,7.8316956,0.27919006,-0.28796387,0.12132263,10.60707003,76.13710629,8.14
19-02-2019 6.28,1.55E+12,-0.93074036,4.454788,10.417435,-0.41003418,0.24786377,-0.015029907,10.60707003,76.13710629,8.14
19-02-2019 6.28,1.55E+12,1.6549988,10.622253,1.4631195,0.39637756,-0.10153198,0.04888916,10.60707003,76.13710629,8.14
19-02-2019 6.28,1.55E+12,1.0420837,5.718933,8.549957,-0.532547,0.019897461,0.021194458,10.60707003,76.13710629,8.14
19-02-2019 6.28,1.55E+12,0.5752106,10.181717,4.0799866,0.17906189,0.011383057,0.012664795,10.60707003,76.13710629,8.14
19-02-2019 6.28,1.55E+12,3.613449,6.9615173,8.121399,-0.53041077,-0.034423828,0.036102295,10.60707003,76.13710629,8.14
19-02-2019 6.28,1.55E+12,0.8673096,10.358887,-0.61743164,0.23764038,0.24467468,-0.060836792,10.60707003,76.13710629,8.14
19-02-2019 6.28,1.55E+12,4.5400085,4.3446503,12.502792,-0.6252136,0.06890869,-0.032073975,10.60707003,76.13710629,8.14
19-02-2019 6.28,1.55E+12,2.3900146,11.137009,0.8717499,0.43579102,0.3053894,-0.04698181,10.60707003,76.13710629,8.14
19-02-2019 6.28,1.55E+12,1.7364044,2.920105,13.608917,-0.4633026,0.31178284,-0.0927887,10.60707003,76.13710629,8.14
19-02-2019 6.28,1.55E+12,5.811325,4.9527893,13.283295,0.07145691,-0.09941101,0.07977295,10.60707003,76.13710629,8.14
19-02-2019 6.28,1.55E+12,-2.6473846,6.588028,4.3529205,0.29516602,0.53549194,-0.09918213,10.60707003,76.13710629,8.14
19-02-2019 6.28,1.55E+12,3.455429,1.5554047,14.856293,-0.36315918,-0.404068,0.061676025,10.60707003,76.13710629,8.14
19-02-2019 6.28,1.55E+12,-2.1685486,8.378891,2.8541565,0.46455383,0.18714905,-0.051254272,10.60707003,76.13710629,8.14
19-02-2019 6.28,1.55E+12,0.7978668,3.4013367,10.83403,-0.34399414,-0.2559967,0.057403564,10.60707003,76.13710629,8.14
19-02-2019 6.28,1.55E+12,-0.854126,7.3182526,6.493347,0.1055603,-0.086624146,0.041427612,10.60707003,76.13710629,8.14
19-02-2019 6.28,1.55E+12,0.024536133,5.7165375,7.0918884,-0.038253784,-0.07064819,0.00201416,10.60707003,76.13710629,8.14
19-02-2019 6.28,1.55E+12,-0.0975647,5.1874084,6.3448944,-0.044647217,-0.11857605,0.005203247,10.60707003,76.13710629,8.14
19-02-2019 6.28,1.55E+12,-0.9139862,4.4907074,8.514053,-0.110702515,0.006057739,0.005203247,10.60707003,76.13710629,8.14
19-02-2019 6.28,1.55E+12,1.8680725,5.395706,10.65686,-0.061691284,-0.2091217,0.03503418,10.60707003,76.13710629,8.14
19-02-2019 6.28,1.55E+12,-2.530075,6.3150787,6.3927917,0.17478943,0.27236938,-0.065093994,10.60707003,76.13710629,8.14
19-02-2019 6.28,1.55E+12,3.122635,4.6367493,10.738266,0.062942505,-0.24108887,0.04675293,10.60707003,76.13710629,8.14
19-02-2019 6.28,1.55E+12,-1.9698334,3.9544067,8.10704,0.10021973,0.26704407,-0.12049866,10.60707003,76.13710629,8.14
19-02-2019 6.28,1.55E+12,1.5209198,6.667038,7.6090393,0.27172852,-0.13668823,0.026519775,10.60707003,76.13710629,8.14
19-02-2019 6.28,1.55E+12,-0.13586426,2.9320831,11.612152,-0.22148132,0.059310913,-0.004379273,10.60707003,76.13710629,8.14
19-02-2019 6.28,1.55E+12,2.1577759,4.691818,11.018387,0.15774536,-0.06958008,0.028640747,10.60707003,76.13710629,8.14
19-02-2019 6.28,1.55E+12,1.4538879,6.003845,3.306656,0.2674713,0.15731812,-0.038467407,10.60707003,76.13710629,8.14
19-02-2019 6.28,1.55E+12,2.1769257,1.3016205,18.095642,-0.06489563,0.1285553,-0.061904907,10.60707003,76.13710629,8.14
19-02-2019 6.28,1.55E+12,4.3101654,7.6510468,7.7287445,0.59025574,0.046539307,-0.038467407,10.60707003,76.13710629,8.14
19-02-2019 6.28,1.55E+12,-0.8373718,3.4444427,9.517212,0.11300659,0.49287415,-0.18547058,10.60707003,76.13710629,8.14
19-02-2019 6.28,1.55E+12,6.0507507,1.7517395,15.047821,-0.17674255,-0.34228516,0.13729858,10.60707003,76.13710629,8.14
19-02-2019 6.28,1.55E+12,-2.3433228,10.514511,-0.42111206,0.4613495,0.4779663,-0.07788086,10.60707003,76.13710629,8.14
19-02-2019 6.28,1.55E+12,2.600708,1.2345886,14.549835,-0.71043396,-0.3816986,0.07337952,10.60707003,76.13710629,8.14
19-02-2019 6.28,1.55E+12,-1.4502869,10.698868,-0.59588623,0.26428223,0.06997681,-0.002243042,10.60707003,76.13710629,8.14
19-02-2019 6.28,1.55E+12,-1.28508,4.749283,9.167664,-0.5399933,-0.15054321,0.026519775,10.60707003,76.13710629,8.14
19-02-2019 6.28,1.55E+12,1.3365631,7.746811,3.828598,-0.20124817,-0.322052,0.071258545,10.60707003,76.13710629,8.14
19-02-2019 6.28,1.55E+12,-2.8006134,6.37973,1.4511566,-0.10324097,0.19993591,-0.07041931,10.60707003,76.13710629,8.14
19-02-2019 6.28,1.55E+12,3.1968536,4.0836945,13.455688,-0.4206848,-0.36997986,0.08404541,10.60707003,76.13710629,8.14
19-02-2019 6.28,1.55E+12,-1.9195557,5.730896,7.8197327,0.23231506,0.34054565,-0.088531494,10.60707003,76.13710629,8.14
19-02-2019 6.28,1.55E+12,2.0644073,5.2664185,8.95697,0.21740723,-0.12390137,-0.026748657,10.60707003,76.13710629,8.14
19-02-2019 6.28,1.55E+12,-0.502182,0.9855957,13.663971,-0.20336914,0.11364746,0.01373291,10.60707003,76.13710629,8.14
19-02-2019 6.28,1.55E+12,1.664566,8.45311,3.9722443,0.5359192,-0.051467896,0.05633545,10.60707003,76.13710629,8.14
19-02-2019 6.28,1.55E+12,-1.4263458,1.1148834,13.635239,-0.47181702,0.05079651,-0.039535522,10.60707003,76.13710629,8.14
19-02-2019 6.28,1.55E+12,2.4786072,9.341354,3.4742584,0.31967163,-0.18995667,0.03929138,10.60707003,76.13710629,8.14
19-02-2019 6.28,1.55E+12,-2.2547302,4.6487274,7.635376,-0.2864685,0.20526123,-0.03314209,10.60707003,76.13710629,8.14
19-02-2019 6.28,1.55E+12,3.6469727,5.0413666,10.982468,-0.047851562,-0.2602539,0.08404541,10.60707003,76.13710629,8.14
19-02-2019 6.28,1.55E+12,-0.38008118,5.043762,7.405533,0.14497375,0.30645752,-0.027816772,10.60707003,76.13710629,8.14
19-02-2019 6.28,1.55E+12,1.3940277,3.69104,12.095779,0.24084473,0.009246826,0.02331543,10.60707003,76.13710629,8.14
19-02-2019 6.28,1.55E+12,1.5041656,2.0438232,14.023102,0.02671814,0.014572144,-1.22E-04,10.60707003,76.13710629,8.14
19-02-2019 6.28,1.55E+12,-1.2108612,6.6981506,4.9730225,0.57958984,0.17329407,-0.03526306,10.60707003,76.13710629,8.14
19-02-2019 6.28,1.55E+12,1.6047211,3.0948792,12.713486,-0.2949829,-0.21658325,0.0680542,10.60707003,76.13710629,8.14
19-02-2019 6.28,1.55E+12,-0.58358765,6.89209,5.449463,0.13537598,0.018844604,0.017990112,10.60707003,76.13710629,8.14
19-02-2019 6.28,1.55E+12,0.13227844,5.651886,6.97937,-0.10536194,-0.045074463,-0.002243042,10.60707003,76.13710629,8.14
19-02-2019 6.28,1.55E+12,-0.16220093,5.022217,8.832474,-0.1138916,-0.077041626,-0.022491455,10.60707003,76.13710629,8.14
19-02-2019 6.28,1.55E+12,0.007781982,6.5353546,7.3289185,0.12365723,0.019897461,-0.028884888,10.60707003,76.13710629,8.14
19-02-2019 6.28,1.55E+12,0.2567749,5.1754456,7.8628235,0.020324707,-0.07597351,-0.025680542,10.60707003,76.13710629,8.14
19-02-2019 6.28,1.55E+12,-0.26036072,4.0453796,10.125351,-0.07980347,0.011383057,-0.008636475,10.60707003,76.13710629,8.14
19-02-2019 6.28,1.55E+12,1.18573,5.6973877,8.712769,0.10342407,-0.1068573,0.028640747,10.60707003,76.13710629,8.14
19-02-2019 6.28,1.55E+12,-1.9434967,4.4164886,8.916275,0.018203735,0.14666748,-0.10664368,10.60707003,76.13710629,8.14
19-02-2019 6.28,1.55E+12,2.0165253,6.3940887,7.745514,0.13218689,-0.17823792,0.003082275,10.60707003,76.13710629,8.14
19-02-2019 6.28,1.55E+12,-1.1079102,6.494644,4.678543,0.14283752,0.22337341,-0.09492493,10.60707003,76.13710629,8.14
19-02-2019 6.28,1.55E+12,2.4331055,2.6663208,12.754181,-0.045715332,-0.09088135,-0.018218994,10.60707003,76.13710629,8.14
19-02-2019 6.28,1.55E+12,2.1912994,5.790756,6.8022003,0.29516602,0.1519928,-0.03526306,10.60707003,76.13710629,8.14
19-02-2019 6.28,1.55E+12,-1.5101471,1.766098,14.78685,0.15562439,0.2308197,-0.12582397,10.60707003,76.13710629,8.14
19-02-2019 6.28,1.55E+12,3.249527,1.7014618,18.062119,0.05229187,-0.24108887,0.01159668,10.60707003,76.13710629,8.14
19-02-2019 6.28,1.55E+12,-2.5827484,7.8401947,0.72091675,0.6626892,0.30433655,-0.078948975,10.60707003,76.13710629,8.14
19-02-2019 6.28,1.55E+12,1.3174133,3.1284027,9.773392,-0.42175293,-0.34228516,-0.003311157,10.60707003,76.13710629,8.14
19-02-2019 6.28,1.55E+12,-1.411972,7.533737,6.462219,-0.073410034,-0.04827881,-0.03526306,10.60707003,76.13710629,8.14
19-02-2019 6.28,1.55E+12,0.5584564,7.2775574,8.810928,-0.07234192,-0.13349915,0.014801025,10.60707003,76.13710629,8.14
19-02-2019 6.28,1.55E+12,-1.7208252,5.0485535,5.248352,-0.098983765,-0.08769226,-0.06829834,10.60707003,76.13710629,8.14
19-02-2019 6.28,1.55E+12,-0.23162842,6.7436523,4.5229187,0.059753418,-0.11538696,0.032913208,10.60707003,76.13710629,8.14
19-02-2019 6.28,1.55E+12,0.07243347,3.3175507,11.9305725,-0.1884613,-0.21871948,0.02758789,10.60707003,76.13710629,8.14
19-02-2019 6.28,1.55E+12,-1.1007385,6.9351807,4.513336,0.3175354,0.07102966,-0.00970459,10.60707003,76.13710629,8.14
19-02-2019 6.28,1.55E+12,2.5504303,3.8562317,9.160477,-0.1096344,-0.19528198,0.07019043,10.60707003,76.13710629,8.14
19-02-2019 6.28,1.55E+12,-1.9291229,5.2257233,4.3912354,0.07359314,0.2414856,-0.11943054,10.60707003,76.13710629,8.14
19-02-2019 6.28,1.55E+12,4.216797,5.2233276,12.134079,-0.21936035,-0.1686554,0.010543823,10.60707003,76.13710629,8.14
19-02-2019 6.28,1.55E+12,-0.44711304,6.090027,8.095062,0.062942505,0.30220032,-0.09811401,10.60707003,76.13710629,8.14
19-02-2019 6.28,1.55E+12,3.7379456,5.0317993,10.031967,-0.06489563,0.03375244,-0.027816772,10.60707003,76.13710629,8.14
19-02-2019 6.28,1.55E+12,2.0141296,4.505066,6.086334,0.05441284,0.16903687,-0.041656494,10.60707003,76.13710629,8.14
19-02-2019 6.28,1.55E+12,1.398819,6.3366394,9.993668,0.04270935,0.20100403,-0.05230713,10.60707003,76.13710629,8.14
19-02-2019 6.28,1.55E+12,2.6174622,2.4676056,17.839462,-0.25556946,-0.11431885,0.028640747,10.60707003,76.13710629,8.14
19-02-2019 6.28,1.55E+12,0.21128845,11.194473,-3.875946,0.48265076,0.20526123,-0.03314209,10.60707003,76.13710629,8.14
19-02-2019 6.28,1.55E+12,-0.6937103,5.4316254,4.702484,-0.5378723,-0.11645508,-0.00970459,10.60707003,76.13710629,8.14
19-02-2019 6.28,1.55E+12,2.3134003,6.944763,8.435043,-0.45477295,-0.29008484,0.05633545,10.60707003,76.13710629,8.14
19-02-2019 6.28,1.55E+12,-0.68174744,7.885681,4.6067047,0.06187439,0.19247437,-0.005447388,10.60707003,76.13710629,8.14
19-02-2019 6.28,1.55E+12,1.9542694,5.395706,6.4670105,-0.16716003,-0.15054321,0.00201416,10.60707003,76.13710629,8.14
19-02-2019 6.28,1.55E+12,-1.5364685,1.4333038,12.756577,-0.3365326,0.10725403,0.003082275,10.60707003,76.13710629,8.14
19-02-2019 6.28,1.55E+12,1.3030548,9.568802,6.2898407,0.35057068,-0.20167542,0.08937073,10.60707003,76.13710629,8.14
19-02-2019 6.28,1.55E+12,-2.3576813,1.8092041,14.576172,-0.4302826,0.063583374,-0.04272461,10.60707003,76.13710629,8.14
19-02-2019 6.28,1.55E+12,1.5041656,8.845749,0.06491089,0.47946167,-0.27729797,0.082977295,10.60707003,76.13710629,8.14
19-02-2019 6.28,1.55E+12,-2.1613617,0.6336365,11.861145,-0.58047485,0.04121399,-0.007568359,10.60707003,76.13710629,8.14
19-02-2019 6.28,1.55E+12,0.2519989,6.149887,13.455688,0.33139038,-0.32844543,0.07551575,10.60707003,76.13710629,8.14
19-02-2019 6.28,1.55E+12,0.8553314,1.9313049,11.703125,0.08956909,-0.010986328,0.038238525,10.60707003,76.13710629,8.14
19-02-2019 6.28,1.55E+12,-1.783081,2.809967,9.792557,0.8874512,0.05293274,-0.024612427,10.60707003,76.13710629,8.14
19-02-2019 6.28,1.55E+12,3.3213654,-1.3056641,14.047043,-0.12347412,-0.3454895,0.14050293,10.60707003,76.13710629,8.14
19-02-2019 6.28,1.55E+12,-3.0855255,1.0789642,19.211334,0.7319336,0.13069153,0.03717041,10.60707003,76.13710629,8.14
19-02-2019 6.28,1.55E+12,4.877594,4.7612457,12.706299,0.5689392,-0.4424286,0.1426239,10.60707003,76.13710629,8.14
19-02-2019 6.28,1.55E+12,-6.91864,0.64801025,15.32077,0.46881104,0.36824036,-0.10557556,10.60707003,76.13710629,8.14
19-02-2019 6.28,1.55E+12,6.558319,7.035736,13.529907,0.38252258,-0.8418884,0.27792358,10.60707003,76.13710629,8.14
19-02-2019 6.28,1.55E+12,-5.407898,11.73555,-5.733841,0.032043457,0.31817627,-0.024612427,10.60707003,76.13710629,8.14
19-02-2019 6.28,1.55E+12,1.075592,14.060333,1.4104462,-0.3333435,-0.63842773,0.20228577,10.60707003,76.13710629,8.14
19-02-2019 6.28,1.55E+12,1.6095123,-0.45332336,12.770935,-1.5498657,-0.4275055,0.18310547,10.60707003,76.13710629,8.14
19-02-2019 6.28,1.55E+12,-0.9355316,25.858948,-21.42305,1.7716217,0.27023315,-0.010772705,10.60707003,76.13710629,8.14
19-02-2019 6.28,1.55E+12,3.7930145,-8.287155,28.196777,-2.1229858,-0.25706482,0.06593323,10.60707003,76.13710629,8.14
19-02-2019 6.28,1.55E+12,4.432266,15.547119,-3.5216064,1.6672363,0.21697998,0.07977295,10.60707003,76.13710629,8.14
19-02-2019 6.28,1.55E+12,0.74279785,-3.400589,17.4971,-0.6635742,0.44174194,-0.04486084,10.60707003,76.13710629,8.14
19-02-2019 6.28,1.55E+12,5.653305,11.666122,3.409607,0.8853302,-0.18782043,0.12452698,10.60707003,76.13710629,8.14
19-02-2019 6.28,1.55E+12,0.019760132,0.50914,14.863464,-0.34718323,0.4076538,-0.039535522,10.60707003,76.13710629,8.14
19-02-2019 6.28,1.55E+12,6.0292053,8.797867,3.1965332,0.57107544,-0.23362732,0.1383667,10.60707003,76.13710629,8.14
19-02-2019 6.28,1.55E+12,-2.221222,1.979187,13.036697,-0.21722412,0.44706726,-0.07148743,10.60707003,76.13710629,8.14
19-02-2019 6.28,1.55E+12,5.229538,5.287979,10.745438,0.16946411,-0.3859558,0.16287231,10.60707003,76.13710629,8.14
19-02-2019 6.28,1.55E+12,-2.9705963,7.042923,5.0951233,0.19822693,0.36079407,-0.018218994,10.60707003,76.13710629,8.14
19-02-2019 6.28,1.55E+12,4.5878906,5.505844,10.257034,-0.20976257,-0.4935608,0.1809845,10.60707003,76.13710629,8.14
19-02-2019 6.28,1.55E+12,-2.6378021,6.255234,5.4901733,0.025665283,0.14880371,0.01586914,10.60707003,76.13710629,8.14
19-02-2019 6.28,1.55E+12,0.70210266,5.6614685,8.753464,-0.1181488,-0.31245422,0.14476013,10.60707003,76.13710629,8.14
19-02-2019 6.28,1.55E+12,0.19213867,8.307053,3.0313263,-0.08406067,-0.17077637,0.118133545,10.60707003,76.13710629,8.14
19-02-2019 6.28,1.55E+12,-2.403183,8.036514,5.080765,-0.13839722,-0.016311646,0.054214478,10.60707003,76.13710629,8.14
19-02-2019 6.28,1.55E+12,3.7140045,8.390854,4.120682,-0.37275696,-0.4232483,0.21507263,10.60707003,76.13710629,8.14
19-02-2019 6.28,1.55E+12,-2.395996,9.089966,-2.1042328,0.004348755,0.30326843,0.00201416,10.60707003,76.13710629,8.14
19-02-2019 6.28,1.55E+12,4.7578735,3.5210571,15.452438,-0.6422577,-0.3497467,0.12345886,10.60707003,76.13710629,8.14
19-02-2019 6.28,1.55E+12,0.78590393,7.0381317,3.0193481,0.3846588,0.3703766,0.043563843,10.60707003,76.13710629,8.14
19-02-2019 6.28,1.55E+12,2.7730865,2.0486145,16.201828,0.04057312,0.08488464,0.06486511,10.60707003,76.13710629,8.14
19-02-2019 6.28,1.55E+12,4.0803223,2.6423798,11.047119,0.22380066,0.010314941,0.17352295,10.60707003,76.13710629,8.14
19-02-2019 6.28,1.55E+12,0.26635742,7.382904,4.276306,0.578537,0.39700317,0.08509827,10.60707003,76.13710629,8.14
19-02-2019 6.28,1.55E+12,2.6102753,1.117279,16.709396,-0.5644989,-0.27304077,0.14689636,10.60707003,76.13710629,8.14
19-02-2019 6.28,1.55E+12,1.0636292,13.035614,-2.9637604,0.17160034,0.18289185,0.11174011,10.60707003,76.13710629,8.14
19-02-2019 6.28,1.55E+12,0.5464783,8.077209,2.5931854,-0.52827454,-0.022705078,0.09788513,10.60707003,76.13710629,8.14
19-02-2019 6.28,1.55E+12,2.3134003,7.188965,10.881912,-0.65397644,-0.12922668,0.102142334,10.60707003,76.13710629,8.14
19-02-2019 6.28,1.55E+12,2.3373413,6.963913,6.1390076,0.065078735,0.12750244,0.18417358,10.60707003,76.13710629,8.14
19-02-2019 6.28,1.55E+12,-0.2460022,8.819412,3.3760986,0.12792969,0.16371155,0.07337952,10.60707003,76.13710629,8.14
19-02-2019 6.28,1.55E+12,0.5392914,-0.47966003,18.789963,-0.7381439,-0.14840698,0.15115356,10.60707003,76.13710629,8.14
19-02-2019 6.28,1.55E+12,-0.88764954,13.332489,0.4862976,0.57958984,0.007125855,0.1809845,10.60707003,76.13710629,8.14
19-02-2019 6.28,1.55E+12,-0.63386536,3.77005,12.402237,-0.60816956,-0.11112976,0.0872345,10.60707003,76.13710629,8.14
19-02-2019 6.28,1.55E+12,0.5847931,8.21608,2.6697998,0.10021973,-0.13775635,0.1341095,10.60707003,76.13710629,8.14
19-02-2019 6.28,1.55E+12,-0.39923096,9.394028,2.9427338,-0.02973938,0.027359009,0.092559814,10.60707003,76.13710629,8.14
19-02-2019 6.28,1.55E+12,0.383667,3.873001,11.042328,-0.55703735,-0.22511292,0.092559814,10.60707003,76.13710629,8.14
19-02-2019 6.28,1.55E+12,-0.4303589,12.010895,-0.19606018,0.50289917,0.17010498,0.071258545,10.60707003,76.13710629,8.14
19-02-2019 6.28,1.55E+12,1.7052765,0.30563354,16.223373,-0.59539795,-0.12071228,0.12664795,10.60707003,76.13710629,8.14
19-02-2019 6.28,1.55E+12,0.68055725,11.311783,0.014633179,0.7606964,0.23295593,0.057403564,10.60707003,76.13710629,8.14
19-02-2019 6.28,1.55E+12,3.292633,1.9313049,15.423721,-0.47288513,0.09660339,0.08616638,10.60707003,76.13710629,8.14
19-02-2019 6.28,1.55E+12,3.000534,10.1601715,3.6250916,0.62753296,0.23402405,-0.020355225,10.60707003,76.13710629,8.14
19-02-2019 6.28,1.55E+12,1.2264404,1.9863739,14.489975,-0.32481384,0.40979004,-0.04486084,10.60707003,76.13710629,8.14
19-02-2019 6.28,1.55E+12,5.4617767,10.449875,8.794174,0.52526855,-0.077041626,0.069122314,10.60707003,76.13710629,8.14
19-02-2019 6.28,1.55E+12,-1.9817963,6.3725433,4.338562,-0.09365845,0.566391,-0.10450745,10.60707003,76.13710629,8.14
19-02-2019 6.28,1.55E+12,4.118622,8.0173645,9.464554,-0.10217285,-0.3486786,0.15327454,10.60707003,76.13710629,8.14
19-02-2019 6.28,1.55E+12,-1.1869202,9.276718,0.37376404,-0.2619629,0.2180481,-0.003311157,10.60707003,76.13710629,8.14
19-02-2019 6.28,1.55E+12,-0.423172,9.832169,3.0241394,-0.12774658,-0.030166626,-0.018218994,10.60707003,76.13710629,8.14
19-02-2019 6.28,1.55E+12,2.217636,4.1794586,10.781357,-0.59965515,-0.20593262,0.071258545,10.60707003,76.13710629,8.14
19-02-2019 6.28,1.55E+12,0.17298889,13.895126,-3.5216064,0.68185425,0.29048157,-0.025680542,10.60707003,76.13710629,8.14
19-02-2019 6.28,1.55E+12,3.7164001,-0.058273315,19.630325,-0.6848755,0.003921509,-0.005447388,10.60707003,76.13710629,8.14
19-02-2019 6.28,1.55E+12,3.0747528,9.532898,7.405533,0.7170105,0.20845032,0.020126343,10.60707003,76.13710629,8.14
19-02-2019 6.28,1.55E+12,-0.7511749,3.5713348,5.6242523,0.065078735,0.35758972,-0.08746338,10.60707003,76.13710629,8.14
19-02-2019 6.28,1.55E+12,3.0292664,6.1427,9.050354,0.055480957,-0.18782043,0.057403564,10.60707003,76.13710629,8.14
19-02-2019 6.28,1.55E+12,0.14186096,4.201004,10.977676,0.02885437,0.1477356,0.020126343,10.60707003,76.13710629,8.14
19-02-2019 6.28,1.55E+12,2.8018188,8.603943,2.207718,0.3835907,-0.033355713,0.054214478,10.60707003,76.13710629,8.14
19-02-2019 6.28,1.55E+12,0.17059326,-0.80526733,20.882492,-0.22254944,0.14880371,-0.017166138,10.60707003,76.13710629,8.14
19-02-2019 6.28,1.55E+12,4.3724213,7.710907,7.7910004,0.8352661,-0.12817383,0.053146362,10.60707003,76.13710629,8.14
19-02-2019 6.28,1.55E+12,-3.39917,3.157135,6.725586,0.39956665,0.41085815,-0.08746338,10.60707003,76.13710629,8.14
19-02-2019 6.28,1.55E+12,4.822525,3.2193756,12.993607,-0.08299255,-0.51486206,0.18843079,10.60707003,76.13710629,8.14
19-02-2019 6.28,1.55E+12,-3.6385803,6.2863464,6.627411,0.3644104,0.22016907,0.041427612,10.60707003,76.13710629,8.14
19-02-2019 6.28,1.55E+12,3.771469,5.050949,11.332031,-0.1565094,-0.5010071,0.22572327,10.60707003,76.13710629,8.14
19-02-2019 6.28,1.55E+12,-3.281845,6.4826813,6.146179,0.19822693,0.12536621,0.053146362,10.60707003,76.13710629,8.14
19-02-2019 6.28,1.55E+12,0.7044983,3.169098,10.630524,-0.27474976,-0.3816986,0.22891235,10.60707003,76.13710629,8.14
19-02-2019 6.28,1.55E+12,-1.4622498,10.581558,-1.5870819,0.20143127,-0.16970825,0.19482422,10.60707003,76.13710629,8.14
19-02-2019 6.28,1.55E+12,-2.4366913,4.390152,8.425461,-0.57728577,-0.17503357,0.14582825,10.60707003,76.13710629,8.14
19-02-2019 6.28,1.55E+12,3.359665,7.394867,6.9649963,-0.28433228,-0.51379395,0.3375702,10.60707003,76.13710629,8.14
19-02-2019 6.28,1.55E+12,-2.3145905,9.434723,2.2556,0.0821228,0.2691803,0.07765198,10.60707003,76.13710629,8.14
19-02-2019 6.28,1.55E+12,5.1289825,4.8665924,13.058243,-0.47288513,-0.28050232,0.17245483,10.60707003,76.13710629,8.14
19-02-2019 6.28,1.55E+12,-0.52612305,9.121094,2.128708,0.3878479,0.3330841,0.09576416,10.60707003,76.13710629,8.14
19-02-2019 6.28,1.55E+12,3.2064362,5.556122,9.421448,-0.17141724,-0.0791626,0.1618042,10.60707003,76.13710629,8.14
19-02-2019 6.28,1.55E+12,1.2024841,4.591263,10.87233,-0.02973938,0.077423096,0.18417358,10.60707003,76.13710629,8.14
19-02-2019 6.28,1.55E+12,1.537674,8.55127,3.8094482,0.19396973,-0.007797241,0.21826172,10.60707003,76.13710629,8.14
19-02-2019 6.28,1.55E+12,0.29748535,4.6606903,11.353577,-0.22361755,-0.02696228,0.12878418,10.60707003,76.13710629,8.14
19-02-2019 6.28,1.55E+12,1.6478119,9.183334,4.4271393,0.2855835,-0.08023071,0.17991638,10.60707003,76.13710629,8.14
19-02-2019 6.28,1.55E+12,0.10594177,5.156296,9.948181,-0.2949829,-0.035491943,0.2171936,10.60707003,76.13710629,8.14
19-02-2019 6.28,1.55E+12,2.5025482,7.1602325,11.925781,0.16627502,-0.12284851,0.2171936,10.60707003,76.13710629,8.14
19-02-2019 6.28,1.55E+12,-0.1478424,5.185028,9.96254,0.057617188,0.091278076,0.15861511,10.60707003,76.13710629,8.14
19-02-2019 6.28,1.55E+12,0.3501587,5.070099,8.81572,0.27600098,-0.11325073,0.19056702,10.60707003,76.13710629,8.14
19-02-2019 6.28,1.55E+12,1.4275513,7.042923,6.2611084,0.28877258,-0.074905396,0.1894989,10.60707003,76.13710629,8.14
19-02-2019 6.28,1.55E+12,0.3932495,4.7947693,7.604248,0.01713562,-0.028030396,0.20974731,10.60707003,76.13710629,8.14
19-02-2019 6.28,1.55E+12,2.82576,8.105942,8.492508,0.10128784,-0.16651917,0.2832489,10.60707003,76.13710629,8.14
19-02-2019 6.28,1.55E+12,1.1474304,5.386139,12.234634,-0.16288757,0.08488464,0.20121765,10.60707003,76.13710629,8.14
19-02-2019 6.28,1.55E+12,1.5424652,7.6031647,7.6449585,0.1875763,0.03375244,0.23104858,10.60707003,76.13710629,8.14
19-02-2019 6.28,1.55E+12,1.7411804,8.697311,4.6330414,0.13430786,0.12322998,0.15434265,10.60707003,76.13710629,8.14
19-02-2019 6.28,1.55E+12,1.5233154,5.41008,8.605026,-0.26515198,-0.023773193,0.22679138,10.60707003,76.13710629,8.14
19-02-2019 6.28,1.55E+12,2.7371674,7.7444153,7.671295,-0.057434082,0.011383057,0.22251892,10.60707003,76.13710629,8.14
19-02-2019 6.28,1.55E+12,0.6470337,8.2352295,3.1582184,0.12365723,0.22337341,0.13304138,10.60707003,76.13710629,8.14
19-02-2019 6.28,1.55E+12,2.593521,4.773224,9.917053,-0.34825134,0.034820557,0.16926575,10.60707003,76.13710629,8.14
19-02-2019 6.28,1.55E+12,3.7571106,9.824982,4.520523,0.3846588,0.14559937,0.1426239,10.60707003,76.13710629,8.14
19-02-2019 6.28,1.55E+12,1.695694,2.3981628,12.909805,-0.122421265,0.36824036,0.07872009,10.60707003,76.13710629,8.14
19-02-2019 6.28,1.55E+12,5.988495,7.478668,8.360825,0.4102173,0.04866028,0.2363739,10.60707003,76.13710629,8.14
19-02-2019 6.28,1.55E+12,-0.27233887,2.3407135,16.862625,0.262146,0.5493469,-0.012893677,10.60707003,76.13710629,8.14
19-02-2019 6.28,1.55E+12,5.617401,4.0884705,15.701447,0.3100891,-0.13989258,0.15647888,10.60707003,76.13710629,8.14
19-02-2019 6.28,1.55E+12,-2.8604736,7.9814453,3.3234253,0.7638855,0.6004791,-0.078948975,10.60707003,76.13710629,8.14
19-02-2019 6.28,1.55E+12,2.035675,0.26493835,17.193024,-0.52401733,-0.36572266,0.21612549,10.60619618,76.13658982,11.38
19-02-2019 6.28,1.55E+12,0.10354614,13.253479,-2.7003937,0.6296692,-0.037628174,0.19270325,10.60619618,76.13658982,11.38
19-02-2019 6.28,1.55E+12,-4.1437683,4.320709,6.251526,-0.5080414,0.16796875,-0.0693512,10.60619618,76.13658982,11.38
19-02-2019 6.28,1.55E+12,5.0260315,10.236786,3.998581,-0.2864685,-0.44029236,0.21507263,10.60619618,76.13658982,11.38
19-02-2019 6.28,1.55E+12,-2.6785126,12.463394,-1.8097534,0.22380066,0.5738373,-0.10983276,10.60619618,76.13658982,11.38
19-02-2019 6.28,1.55E+12,6.3619995,1.8068085,16.153946,-0.6667633,-0.20274353,0.09788513,10.60619618,76.13658982,11.38
19-02-2019 6.28,1.55E+12,2.5719757,12.312561,3.3353882,0.77986145,0.46199036,-0.007568359,10.60619618,76.13658982,11.38
19-02-2019 6.28,1.55E+12,1.3916321,-0.38150024,17.700607,-0.25556946,0.36611938,-0.061904907,10.60619618,76.13658982,11.38
19-02-2019 6.28,1.55E+12,4.980545,8.618301,7.549179,0.7191467,0.05718994,0.18203735,10.60619618,76.13658982,11.38
19-02-2019 6.28,1.55E+12,-0.8086395,3.7844086,10.934586,0.33885193,0.505661,-0.003311157,10.60619618,76.13658982,11.38
19-02-2019 6.28,1.55E+12,4.434662,4.536194,14.243378,0.012878418,-0.2506714,0.21612549,10.60619618,76.13658982,11.38
19-02-2019 6.28,1.55E+12,-3.2698822,8.378891,3.8812714,0.36654663,0.36079407,0.055282593,10.60619618,76.13658982,11.38
19-02-2019 6.28,1.55E+12,0.45310974,3.212204,13.786087,-0.3961792,-0.2741089,0.15861511,10.60619618,76.13658982,11.38
19-02-2019 6.28,1.55E+12,-0.131073,11.089127,-1.6421509,0.18225098,-0.1026001,0.16499329,10.60619618,76.13658982,11.38
19-02-2019 6.28,1.55E+12,-3.4805603,7.6845703,0.08406067,-0.1927185,0.20205688,0.033966064,10.60619618,76.13658982,11.38
19-02-2019 6.28,1.55E+12,6.6157837,6.810684,13.058243,-0.57728577,-0.47224426,0.27578735,10.60619618,76.13658982,11.38
19-02-2019 6.28,1.55E+12,-1.5604248,11.218414,1.7911377,0.49543762,0.6729126,-0.123687744,10.60619618,76.13658982,11.38
19-02-2019 6.28,1.55E+12,3.6110535,4.947998,6.517288,-0.28007507,0.11897278,0.014801025,10.60619618,76.13658982,11.38
19-02-2019 6.28,1.55E+12,3.0699615,7.454727,11.784531,-0.05317688,0.1669159,0.07232666,10.60619618,76.13658982,11.38
19-02-2019 6.28,1.55E+12,1.075592,6.552109,4.673752,0.03843689,0.37783813,-0.038467407,10.60619618,76.13658982,11.38
19-02-2019 6.28,1.55E+12,2.794632,6.264801,8.880356,-0.23213196,0.042266846,0.14157104,10.60619618,76.13658982,11.38
19-02-2019 6.28,1.55E+12,2.9335022,7.296707,8.710373,-0.438797,0.27236938,9.46E-04,10.60619618,76.13658982,11.38
19-02-2019 6.28,1.55E+12,2.181717,13.591064,-4.689972,0.43684387,0.30966187,0.024383545,10.60619618,76.13658982,11.38
19-02-2019 6.28,1.55E+12,3.3500824,4.8426514,11.758194,-0.77648926,0.2414856,0.008407593,10.60619618,76.13658982,11.38
19-02-2019 6.28,1.55E+12,1.2336121,7.153061,6.306595,0.16201782,0.30326843,0.032913208,10.60619618,76.13658982,11.38
19-02-2019 6.28,1.55E+12,3.6541595,9.089966,5.2339935,-0.0947113,0.14987183,0.07337952,10.60619618,76.13658982,11.38
19-02-2019 6.28,1.55E+12,-1.4861908,3.6958313,9.466934,-0.3045807,0.37356567,-0.053375244,10.60619618,76.13658982,11.38
19-02-2019 6.28,1.55E+12,3.7666779,10.2391815,2.947525,0.16520691,-0.009918213,0.09043884,10.60619618,76.13658982,11.38
19-02-2019 6.28,1.55E+12,-0.5381012,5.5345764,9.033585,-0.27474976,0.33203125,0.030776978,10.60619618,76.13658982,11.38
19-02-2019 6.28,1.55E+12,3.3357239,5.9391937,7.8771973,0.016067505,-0.028030396,0.1149292,10.60619618,76.13658982,11.38
19-02-2019 6.28,1.55E+12,0.3214264,8.189743,3.6035461,0.24510193,0.34054565,-0.03314209,10.60619618,76.13658982,11.38
19-02-2019 6.28,1.55E+12,1.5927429,1.9097595,15.722992,-0.21296692,0.098739624,0.006271362,10.60619618,76.13658982,11.38
19-02-2019 6.28,1.55E+12,2.7323914,8.290298,8.183655,0.5359192,0.15838623,0.016921997,10.60619618,76.13658982,11.38
19-02-2019 6.28,1.55E+12,-0.93792725,3.023056,7.824524,0.15562439,0.39060974,-0.041656494,10.60619618,76.13658982,11.38
19-02-2019 6.28,1.55E+12,3.7954102,5.738083,11.856354,0.074661255,-0.16119385,0.1149292,10.60619618,76.13658982,11.38
19-02-2019 6.28,1.55E+12,-2.5324707,5.4364166,10.259415,0.17478943,0.3288269,-0.03314209,10.60619618,76.13658982,11.38
19-02-2019 6.28,1.55E+12,2.7850647,4.93602,11.32724,0.037368774,-0.1494751,0.10960388,10.60619618,76.13658982,11.38
19-02-2019 6.28,1.55E+12,-2.506134,7.557678,5.0041504,0.30262756,0.26065063,-0.001174927,10.60619618,76.13658982,11.38
19-02-2019 6.28,1.55E+12,1.5592194,5.3286743,11.940155,-0.17567444,-0.2091217,0.110672,10.60619618,76.13658982,11.38
19-02-2019 6.28,1.55E+12,-0.19093323,9.59993,0.646698,0.09063721,0.020965576,0.06486511,10.60619618,76.13658982,11.38
19-02-2019 6.28,1.55E+12,-2.4917603,7.0213776,2.2292633,-0.1884613,0.14987183,-0.04698181,10.60619618,76.13658982,11.38
19-02-2019 6.28,1.55E+12,3.613449,8.951096,7.4390564,-0.4707489,-0.28689575,0.08830261,10.60619618,76.13658982,11.38
19-02-2019 6.28,1.55E+12,-2.9011688,10.469025,0.21813965,0.16307068,0.53549194,-0.11729431,10.60619618,76.13658982,11.38
19-02-2019 6.28,1.55E+12,6.3236847,5.0054626,10.137314,-0.57089233,-0.15693665,0.07444763,10.60619618,76.13658982,11.38
19-02-2019 6.28,1.55E+12,-0.2460022,10.078766,1.3793335,0.34204102,0.599411,-0.14819336,10.60619618,76.13658982,11.38
19-02-2019 6.28,1.55E+12,4.2072144,2.4364777,15.459625,-0.485672,0.15092468,-0.06829834,10.60619618,76.13658982,11.38
19-02-2019 6.28,1.55E+12,2.64859,9.951874,2.2627869,0.6520386,0.4300232,-0.06616211,10.60619618,76.13658982,11.38
19-02-2019 6.28,1.55E+12,2.0021515,0.42056274,15.509903,-0.13626099,0.41192627,-0.11090088,10.60619618,76.13658982,11.38
19-02-2019 6.28,1.55E+12,5.5599365,6.1091766,11.145279,0.4304657,0.06251526,0.030776978,10.60619618,76.13658982,11.38
19-02-2019 6.28,1.55E+12,-2.2260132,2.7764587,11.34639,0.3633423,0.6686554,-0.16203308,10.60619618,76.13658982,11.38
19-02-2019 6.28,1.55E+12,5.921463,3.801178,14.523499,0.11621094,-0.28582764,0.09788513,10.60619618,76.13658982,11.38
19-02-2019 6.28,1.55E+12,-3.99292,6.4515533,4.999359,0.5604248,0.56851196,-0.10983276,10.60619618,76.13658982,11.38
19-02-2019 6.28,1.55E+12,3.833725,4.7564545,10.956131,-0.11921692,-0.36891174,0.10002136,10.60619618,76.13658982,11.38
19-02-2019 6.28,1.55E+12,-2.565979,6.671814,8.150131,0.13858032,0.2180481,-0.026748657,10.60619618,76.13658982,11.38
19-02-2019 6.28,1.55E+12,1.65979,5.4483795,9.033585,0.049087524,-0.14094543,0.010543823,10.60619618,76.13658982,11.38
19-02-2019 6.28,1.55E+12,-2.4965515,7.8665314,2.839798,0.23658752,0.16264343,-0.040603638,10.60619618,76.13658982,11.38
19-02-2019 6.28,1.55E+12,0.7188568,5.2616425,11.415817,-0.29605103,-0.18569946,0.016921997,10.60619618,76.13658982,11.38
19-02-2019 6.28,1.55E+12,-0.4638672,8.251999,3.6083221,0.01713562,0.002853394,0.006271362,10.60619618,76.13658982,11.38
19-02-2019 6.28,1.55E+12,-0.31782532,6.6023865,2.2963104,-0.12561035,0.08274841,-0.061904907,10.60619618,76.13658982,11.38
19-02-2019 6.28,1.55E+12,1.5305023,6.5066223,8.885147,-0.42601013,-0.08981323,-0.04272461,10.60619618,76.13658982,11.38
19-02-2019 6.28,1.55E+12,-1.0600281,8.429169,6.9219055,0.03843689,0.27236938,-0.09385681,10.60619618,76.13658982,11.38
19-02-2019 6.28,1.55E+12,1.5113373,7.4355774,2.844574,-0.25024414,0.018844604,-0.039535522,10.60619618,76.13658982,11.38
19-02-2019 6.28,1.55E+12,-0.6434326,4.114807,10.395889,-0.3887329,0.1477356,-0.04486084,10.60619618,76.13658982,11.38
19-02-2019 6.28,1.55E+12,1.5879517,9.523315,2.1215363,-0.009490967,-0.074905396,-0.012893677,10.60619618,76.13658982,11.38
19-02-2019 6.28,1.55E+12,-3.854065,4.8402557,6.2419586,-0.33546448,0.34161377,-0.12475586,10.60619618,76.13658982,11.38
19-02-2019 6.28,1.55E+12,4.810547,9.1163025,8.432648,-0.15969849,-0.31777954,0.06272888,10.60619618,76.13658982,11.38
19-02-2019 6.28,1.55E+12,-2.992157,5.6470947,6.2347717,-0.07980347,0.5536041,-0.18333435,10.60619618,76.13658982,11.38
19-02-2019 6.28,1.55E+12,3.5607758,7.1793976,7.0966797,0.041641235,-0.110061646,0.00201416,10.60619618,76.13658982,11.38
19-02-2019 6.28,1.55E+12,-0.39923096,2.4484558,12.028732,-0.29605103,0.31710815,-0.114105225,10.60619618,76.13658982,11.38
19-02-2019 6.28,1.55E+12,3.2471466,7.9742737,7.5467987,0.15348816,0.112579346,-0.055511475,10.60619618,76.13658982,11.38
19-02-2019 6.28,1.55E+12,0.022155762,3.703003,11.415817,-0.2907257,0.24681091,-0.13008118,10.60619618,76.13658982,11.38
19-02-2019 6.28,1.55E+12,3.5128937,11.299805,0.95555115,0.10128784,0.16903687,-0.05444336,10.60619618,76.13658982,11.38
19-02-2019 6.28,1.55E+12,0.49620056,6.228897,6.91951,-0.42282104,0.23509216,-0.11303711,10.60619618,76.13658982,11.38
19-02-2019 6.28,1.55E+12,2.849701,6.7244873,7.3768005,-0.3130951,0.09767151,-0.11943054,10.60619618,76.13658982,11.38
19-02-2019 6.28,1.55E+12,-0.38008118,7.849762,4.6641693,0.041641235,0.30326843,-0.11729431,10.60619618,76.13658982,11.38
19-02-2019 6.28,1.55E+12,2.8688507,4.3183136,12.304077,-0.35890198,0.01777649,-0.061904907,10.60619618,76.13658982,11.38
19-02-2019 6.28,1.55E+12,1.4371185,6.8944855,4.9418945,0.26853943,0.2926178,-0.08320618,10.60619618,76.13658982,11.38
19-02-2019 6.28,1.55E+12,0.5009918,5.366974,9.124573,0.039505005,0.2542572,-0.09173584,10.60619618,76.13658982,11.38
19-02-2019 6.28,1.55E+12,2.6414032,2.833908,14.772491,-0.19804382,-0.018447876,-0.061904907,10.60619618,76.13658982,11.38
19-02-2019 6.28,1.55E+12,-1.0791779,6.9303894,6.244339,0.309021,0.30326843,-0.12794495,10.60619618,76.13658982,11.38
19-02-2019 6.28,1.55E+12,1.6382294,4.3135376,7.8508606,-0.08831787,-0.06958008,-0.041656494,10.60619618,76.13658982,11.38
19-02-2019 6.28,1.55E+12,0.2926941,7.3134613,4.2499695,0.05229187,0.102996826,-0.05230713,10.60619618,76.13658982,11.38
19-02-2019 6.28,1.55E+12,0.017364502,4.9527893,11.334412,-0.2992401,-0.005661011,-0.09918213,10.60619618,76.13658982,11.38
19-02-2019 6.28,1.55E+12,0.67337036,7.758789,5.5380554,-0.0627594,-0.007797241,-0.10450745,10.60619618,76.13658982,11.38
19-02-2019 6.28,1.55E+12,-1.577179,6.1762238,6.4310913,-0.08406067,0.12962341,-0.1354065,10.60619618,76.13658982,11.38
19-02-2019 6.28,1.55E+12,1.5927429,6.3653564,6.924301,-0.0861969,-0.14094543,-0.040603638,10.60619618,76.13658982,11.38
19-02-2019 6.28,1.55E+12,-0.8565216,5.639923,8.820511,-0.07980347,0.1477356,-0.09918213,10.60619618,76.13658982,11.38
19-02-2019 6.28,1.55E+12,0.62309265,5.876938,10.233078,-0.024414062,-0.11538696,-0.08001709,10.60619618,76.13658982,11.38
19-02-2019 6.28,1.55E+12,-0.4590912,4.955185,8.849243,0.08744812,0.12536621,-0.12687683,10.60619618,76.13658982,11.38
19-02-2019 6.28,1.55E+12,0.031723022,7.533737,3.8788757,0.22805786,0.002853394,-0.0693512,10.60619618,76.13658982,11.38
19-02-2019 6.28,1.55E+12,-1.0265045,2.7118073,15.61525,-0.46969604,-0.047210693,-0.029937744,10.60619618,76.13658982,11.38
19-02-2019 6.28,1.55E+12,1.0205383,10.114685,0.7400818,0.14602661,-0.17398071,0.007339478,10.60619618,76.13658982,11.38
19-02-2019 6.28,1.55E+12,-3.1525574,5.7356873,5.0400543,-0.35144043,0.1669159,-0.111968994,10.60619618,76.13658982,11.38
19-02-2019 6.28,1.55E+12,3.8002014,7.813858,8.059143,-0.41856384,-0.35614014,0.032913208,10.60619618,76.13658982,11.38
19-02-2019 6.28,1.55E+12,-3.7798462,10.607895,0.38095093,0.21954346,0.4683838,-0.20677185,10.60619618,76.13658982,11.38
19-02-2019 6.28,1.55E+12,6.5726776,2.058197,19.414856,-0.62416077,-0.25280762,0.007339478,10.60619618,76.13658982,11.38
19-02-2019 6.28,1.55E+12,2.0165253,10.710846,1.2811584,0.82566833,0.49075317,-0.21209717,10.60619618,76.13658982,11.38
19-02-2019 6.28,1.55E+12,1.26474,1.8379211,14.568985,-0.22148132,0.3842163,-0.2184906,10.60619618,76.13658982,11.38
19-02-2019 6.28,1.55E+12,6.1967926,5.920044,14.643204,0.21954346,-0.13668823,0.032913208,10.60619618,76.13658982,11.38
19-02-2019 6.28,1.55E+12,-3.3656464,7.6223145,2.6386719,0.32180786,0.58343506,-0.2419281,10.60619618,76.13658982,11.38
19-02-2019 6.28,1.55E+12,4.5830994,4.4236603,8.617004,-0.3088379,-0.4232483,0.080841064,10.60619618,76.13658982,11.38
19-02-2019 6.28,1.55E+12,-2.032074,8.263962,6.3760223,-0.12667847,0.24681091,-0.0693512,10.60619618,76.13658982,11.38
19-02-2019 6.28,1.55E+12,0.30467224,6.8154755,10.628128,-0.17460632,-0.15693665,-0.090667725,10.60619618,76.13658982,11.38
19-02-2019 6.28,1.55E+12,0.27833557,8.546478,1.6738129,-0.13093567,-0.072769165,-0.13859558,10.60619618,76.13658982,11.38
19-02-2019 6.28,1.55E+12,-2.2667084,7.9694824,0.804718,-0.11708069,0.114715576,-0.08534241,10.60619618,76.13658982,11.38
19-02-2019 6.28,1.55E+12,3.917511,7.4954224,9.347229,-0.5591736,-0.30819702,0.055282593,10.60619618,76.13658982,11.38
19-02-2019 6.28,1.55E+12,-2.9227142,7.2057343,4.441513,0.01713562,0.39167786,-0.26322937,10.60619618,76.13658982,11.38
19-02-2019 6.28,1.55E+12,5.3420715,5.6375275,9.914658,-0.29179382,-0.24215698,-0.07148743,10.60619618,76.13658982,11.38
19-02-2019 6.28,1.55E+12,-1.1222839,6.422821,5.5811462,0.11514282,0.46199036,-0.16523743,10.60619618,76.13658982,11.38
19-02-2019 6.28,1.55E+12,3.644577,6.137909,9.299347,-0.08938599,-0.003540039,-0.08959961,10.60619618,76.13658982,11.38
19-02-2019 6.28,1.55E+12,0.8816681,4.488312,10.427017,-0.07022095,0.16584778,-0.10877991,10.60619618,76.13658982,11.38
19-02-2019 6.28,1.55E+12,1.6693573,7.595978,4.733597,0.18118286,0.09979248,-0.10131836,10.60619618,76.13658982,11.38
19-02-2019 6.28,1.55E+12,0.27593994,2.2976074,12.756577,-0.38659668,0.03907776,-0.09492493,10.60619618,76.13658982,11.38
19-02-2019 6.28,1.55E+12,0.39085388,8.062851,6.7878265,0.26533508,0.03694153,-0.08427429,10.60619618,76.13658982,11.38
19-02-2019 6.28,1.55E+12,1.0660248,3.8586273,11.042328,-0.17355347,-0.051467896,-0.0693512,10.60619618,76.13658982,11.38
19-02-2019 6.28,1.55E+12,0.84814453,5.4316254,6.359268,0.25575256,0.049728394,-0.061904907,10.60619618,76.13658982,11.38
19-02-2019 6.28,1.55E+12,1.3126221,4.2297363,9.241882,-0.0435791,-0.037628174,-0.045928955,10.60619618,76.13658982,11.38
19-02-2019 6.28,1.55E+12,-1.1629791,4.509857,9.229919,0.19503784,0.051864624,-0.09173584,10.60619618,76.13658982,11.38
19-02-2019 6.28,1.55E+12,0.23762512,3.3654327,16.000717,-0.10324097,-0.18569946,-0.037399292,10.60619618,76.13658982,11.38
19-02-2019 6.28,1.55E+12,-1.7375946,8.11792,-1.3093567,0.40596008,-0.07171631,-0.06297302,10.60619618,76.13658982,11.38
19-02-2019 6.28,1.55E+12,-2.2834625,4.3087463,5.9091644,-0.38980103,-0.13136292,-0.05870056,10.60619618,76.13658982,11.38
19-02-2019 6.28,1.55E+12,1.1234894,4.959961,10.316879,-0.28433228,-0.437088,0.032913208,10.60619618,76.13658982,11.38
19-02-2019 6.28,1.55E+12,-2.9442596,8.390854,3.8812714,0.26960754,0.26811218,-0.13327026,10.60619618,76.13658982,11.38
19-02-2019 6.28,1.55E+12,3.3093872,0.880249,13.89621,-0.2619629,-0.31991577,-0.04272461,10.60619618,76.13658982,11.38
19-02-2019 6.28,1.55E+12,-0.58358765,7.710907,3.8309937,0.59025574,0.33415222,-0.13859558,10.60619618,76.13658982,11.38
19-02-2019 6.28,1.55E+12,1.932724,-0.26896667,20.784332,-0.03718567,0.06037903,-0.08746338,10.60619618,76.13658982,11.38
19-02-2019 6.28,1.55E+12,5.1768646,5.529785,7.915497,0.75323486,0.006057739,-0.11090088,10.60619618,76.13658982,11.38
19-02-2019 6.28,1.55E+12,-3.605072,3.398941,9.598618,0.5731964,0.58555603,-0.24725342,10.60619618,76.13658982,11.38
19-02-2019 6.28,1.55E+12,6.0268097,-0.3910675,23.04686,-0.309906,-0.5990143,0.021194458,10.60619618,76.13658982,11.38
19-02-2019 6.28,1.55E+12,-5.1373596,10.038071,-1.4386444,0.8608246,0.45773315,-0.17907715,10.60619618,76.13658982,11.38
19-02-2019 6.28,1.55E+12,1.4873962,4.2345276,8.518845,-0.48353577,-0.5393677,-0.008636475,10.60619618,76.13658982,11.38
19-02-2019 6.28,1.55E+12,-0.6027374,7.1674194,4.9850006,-0.31095886,-0.18569946,-0.0693512,10.60619618,76.13658982,11.38
19-02-2019 6.28,1.55E+12,-2.6737213,10.90477,2.9403534,0.11514282,0.091278076,-0.14819336,10.60619618,76.13658982,11.38
19-02-2019 6.28,1.55E+12,1.7316132,6.358185,7.8316956,-0.5634308,-0.3252411,-0.08639526,10.60619618,76.13658982,11.38
19-02-2019 6.28,1.55E+12,-2.4558563,7.1123505,6.1629486,0.00328064,0.19033813,-0.23980713,10.60619618,76.13658982,11.38
19-02-2019 6.28,1.55E+12,2.6533813,7.576828,3.8070526,-0.22680664,-0.26559448,-0.10343933,10.60619618,76.13658982,11.38
19-02-2019 6.28,1.55E+12,-3.2938232,7.382904,3.7424011,-0.11602783,0.2457428,-0.2142334,10.60619618,76.13658982,11.38
19-02-2019 6.28,1.55E+12,4.7147827,3.9472198,14.540253,-0.438797,-0.38916016,-0.053375244,10.60619618,76.13658982,11.38
19-02-2019 6.28,1.55E+12,-0.44711304,8.840973,3.081604,0.47839355,0.4172516,-0.18121338,10.60619618,76.13658982,11.38
19-02-2019 6.28,1.55E+12,1.8034363,2.604065,12.05986,-0.058502197,0.04547119,-0.16842651,10.60619618,76.13658982,11.38
19-02-2019 6.28,1.55E+12,1.9542694,4.3877563,9.720734,0.15455627,0.02949524,-0.11729431,10.60619618,76.13658982,11.38
19-02-2019 6.28,1.55E+12,-0.63386536,4.4164886,12.646439,0.2536316,0.21272278,-0.13754272,10.60619618,76.13658982,11.38
19-02-2019 6.28,1.55E+12,4.8751984,6.6861877,9.225128,0.25682068,-0.26559448,-0.05657959,10.60619618,76.13658982,11.38
19-02-2019 6.28,1.55E+12,-2.8293457,3.4899292,9.043167,0.2578888,0.35546875,-0.21530151,10.60619618,76.13658982,11.38
19-02-2019 6.28,1.55E+12,4.9039307,2.3095856,15.878616,-0.12135315,-0.483963,0.049957275,10.60619618,76.13658982,11.38
19-02-2019 6.28,1.55E+12,-5.328888,7.9263763,2.3370056,0.44111633,0.32243347,-0.13754272,10.60619618,76.13658982,11.38
19-02-2019 6.28,1.55E+12,1.3317719,4.6894226,7.5779114,-0.22254944,-0.5521393,-0.032073975,10.60619618,76.13658982,11.38
19-02-2019 6.28,1.55E+12,-1.407196,8.644638,4.429535,-0.11495972,-0.23895264,-0.07041931,10.60619618,76.13658982,11.38
19-02-2019 6.28,1.55E+12,-3.0735474,6.798706,6.737549,-0.169281,-0.04081726,-0.12582397,10.60619618,76.13658982,11.38
19-02-2019 6.28,1.55E+12,2.528885,8.814636,6.754303,-0.18099976,-0.46479797,-0.034210205,10.60619618,76.13658982,11.38
19-02-2019 6.28,1.55E+12,-3.3033905,9.427551,1.0800476,0.14709473,0.23828125,-0.2184906,10.60619618,76.13658982,11.38
19-02-2019 6.28,1.55E+12,2.8544922,4.5266113,11.231461,-0.33013916,-0.3955536,-0.049118042,10.60619618,76.13658982,11.38
19-02-2019 6.28,1.55E+12,-0.78948975,4.536194,10.369553,0.009674072,0.15945435,-0.08106995,10.60619618,76.13658982,11.38
19-02-2019 6.28,1.55E+12,2.5049438,9.305435,2.0592804,0.15242004,-0.12071228,-0.022491455,10.60619618,76.13658982,11.38
19-02-2019 6.28,1.55E+12,-2.6234436,4.9025116,8.691223,-0.38980103,0.11683655,-0.1907959,10.60619618,76.13658982,11.38
19-02-2019 6.28,1.55E+12,4.1641235,9.796249,6.90036,-0.12774658,-0.30819702,-0.03314209,10.60619618,76.13658982,11.38
19-02-2019 6.28,1.55E+12,-2.972992,7.691757,4.3529205,-0.025482178,0.36930847,-0.20677185,10.60619618,76.13658982,11.38
19-02-2019 6.28,1.55E+12,4.578308,4.4404297,11.937759,-0.15437317,-0.30073547,-0.07574463,10.60619618,76.13658982,11.38
19-02-2019 6.28,1.55E+12,0.017364502,5.2903595,10.0056305,0.17692566,0.28727722,-0.11729431,10.60619618,76.13658982,11.38
19-02-2019 6.28,1.55E+12,2.1218567,6.3103027,7.3839874,0.29837036,0.06037903,-0.076812744,10.60619618,76.13658982,11.38
19-02-2019 6.28,1.55E+12,0.9319458,5.3262787,10.69516,-0.010559082,0.004989624,-0.13114929,10.60619618,76.13658982,11.38
19-02-2019 6.28,1.55E+12,1.02771,6.439575,6.4047546,0.18971252,0.04121399,-0.13327026,10.60619618,76.13658982,11.38
19-02-2019 6.28,1.55E+12,1.3126221,7.363739,5.236389,0.07359314,-0.033355713,-0.14286804,10.60619618,76.13658982,11.38
19-02-2019 6.28,1.55E+12,0.462677,3.7365265,12.979233,-0.19485474,-0.004592896,-0.1822815,10.60619618,76.13658982,11.38
19-02-2019 6.28,1.55E+12,2.5719757,7.38768,9.960144,0.24935913,-0.051467896,-0.08106995,10.60619618,76.13658982,11.38
19-02-2019 6.28,1.55E+12,-0.008972168,5.7716064,4.587555,0.076797485,0.18928528,-0.20358276,10.60567405,76.1364294,11.3
19-02-2019 6.28,1.55E+12,1.525711,7.584015,3.8166199,0.05229187,-0.12817383,-0.1631012,10.60567405,76.1364294,11.3
19-02-2019 6.28,1.55E+12,0.5105591,2.6399841,14.820374,-0.3333435,0.024169922,-0.18440247,10.60567405,76.1364294,11.3
19-02-2019 6.28,1.55E+12,3.5942993,9.003769,5.53566,0.517807,-0.07064819,-0.08213806,10.60567405,76.1364294,11.3
19-02-2019 6.28,1.55E+12,-0.6099243,1.7158203,14.202667,-0.040390015,0.2308197,-0.22808838,10.60567405,76.1364294,11.3
19-02-2019 6.28,1.55E+12,4.5232544,5.584854,8.585876,0.42939758,-0.21232605,-0.09599304,10.60567405,76.1364294,11.3
19-02-2019 6.28,1.55E+12,-3.052002,5.6566772,9.296951,0.40489197,0.3714447,-0.22381592,10.60567405,76.1364294,11.3
19-02-2019 6.28,1.55E+12,4.695633,3.5210571,10.891495,-0.019088745,-0.4935608,-0.013961792,10.60567405,76.1364294,11.3
19-02-2019 6.28,1.55E+12,-3.506897,6.3486023,8.308151,0.27067566,0.27876282,-0.14819336,10.60567405,76.1364294,11.3
19-02-2019 6.28,1.55E+12,3.510498,4.8163147,13.69989,-0.12561035,-0.51911926,-0.002243042,10.60567405,76.1364294,11.3
19-02-2019 6.28,1.55E+12,-4.5795135,9.406006,0.16546631,0.2940979,0.1519928,-0.13859558,10.60567405,76.1364294,11.3
19-02-2019 6.28,1.55E+12,0.28071594,4.469162,9.811707,-0.48779297,-0.51698303,-0.04486084,10.60567405,76.1364294,11.3
19-02-2019 6.28,1.55E+12,-0.71047974,12.6501465,-0.90953064,-0.18952942,-0.2975464,-0.01184082,10.60567405,76.1364294,11.3
19-02-2019 6.28,1.55E+12,-4.8692017,7.5744324,4.0345,-0.45265198,-3.36E-04,-0.17375183,10.60567405,76.1364294,11.3
19-02-2019 6.28,1.55E+12,3.9869537,7.9575043,9.205978,-0.5623627,-0.74282837,-0.004379273,10.60567405,76.1364294,11.3
19-02-2019 6.28,1.55E+12,-5.558731,9.010956,3.7064972,0.16201782,0.48968506,-0.22488403,10.60567405,76.1364294,11.3
19-02-2019 6.28,1.55E+12,6.74028,7.94075,3.7232513,-0.24491882,-0.56918335,-0.01184082,10.60567405,76.1364294,11.3
19-02-2019 6.28,1.55E+12,-5.8603973,10.069199,-2.9182587,0.12792969,0.68782043,-0.34632874,10.60567405,76.1364294,11.3
19-02-2019 6.28,1.55E+12,11.509537,3.1188202,19.740463,-0.7732849,-0.53616333,-0.05444336,10.60567405,76.1364294,11.3
19-02-2019 6.28,1.55E+12,0.9295502,11.014908,-2.0443878,0.8800049,0.8635864,-0.37083435,10.60567405,76.1364294,11.3
19-02-2019 6.28,1.55E+12,5.2558746,-0.27375793,18.162674,-0.17781067,0.28515625,-0.34846497,10.60567405,76.1364294,11.3
19-02-2019 6.28,1.55E+12,7.5567017,1.7948303,14.190704,0.4336548,0.012451172,-0.19400024,10.60567405,76.1364294,11.3
19-02-2019 6.28,1.55E+12,-5.628174,11.005325,2.595581,1.2198181,0.84228516,-0.3953247,10.60567405,76.1364294,11.3
19-02-2019 6.28,1.55E+12,6.656479,-5.5386047,23.255142,-1.1791534,-1.0400391,-0.01184082,10.60567405,76.1364294,11.3
19-02-2019 6.28,1.55E+12,-6.870758,13.483322,-6.784897,0.9087677,0.23188782,-0.15563965,10.60567405,76.1364294,11.3
19-02-2019 6.28,1.55E+12,-1.1510162,-1.6049347,19.467514,-1.2920685,-0.7907562,0.003082275,10.60567405,76.1364294,11.3
19-02-2019 6.28,1.55E+12,-3.0879211,14.00766,-7.1751556,0.3367157,-0.5212555,-0.005447388,10.60567405,76.1364294,11.3
19-02-2019 6.28,1.55E+12,-5.2905884,5.718933,2.8278198,-0.7402649,-0.21018982,-0.038467407,10.60567405,76.1364294,11.3
19-02-2019 6.28,1.55E+12,2.308609,7.3541718,7.3169403,-0.5879364,-0.9122009,0.118133545,10.60567405,76.1364294,11.3
19-02-2019 6.28,1.55E+12,-5.925049,8.759567,0.6562805,0.119400024,0.3469391,-0.1396637,10.60567405,76.1364294,11.3
19-02-2019 6.28,1.55E+12,4.2718506,5.3693695,11.293716,-0.35357666,-0.6970215,0.06272888,10.60567405,76.1364294,11.3
19-02-2019 6.28,1.55E+12,-3.403946,3.8538513,10.043945,0.004348755,0.3011322,-0.15138245,10.60567405,76.1364294,11.3
19-02-2019 6.28,1.55E+12,4.3149567,8.053268,6.8596497,0.22059631,-0.33163452,0.049957275,10.60567405,76.1364294,11.3
19-02-2019 6.28,1.55E+12,-2.0512238,6.327057,4.872467,0.022460938,0.32563782,-0.14712524,10.60567405,76.1364294,11.3
19-02-2019 6.28,1.55E+12,4.11145,3.8873596,16.022263,-0.00630188,-0.19207764,-0.03526306,10.60567405,76.1364294,11.3
19-02-2019 6.28,1.55E+12,3.0699615,5.7261047,11.691147,0.32606506,0.102996826,-0.12261963,10.60567405,76.1364294,11.3
19-02-2019 6.28,1.55E+12,-0.799057,5.671051,4.781494,0.37719727,0.32563782,-0.19186401,10.60567405,76.1364294,11.3
19-02-2019 6.28,1.55E+12,2.7084503,4.7133636,10.778961,-0.12135315,-0.31352234,-0.0927887,10.60567405,76.1364294,11.3
19-02-2019 6.28,1.55E+12,-1.3545227,7.1362915,7.537216,0.043762207,0.08595276,-0.15351868,10.60567405,76.1364294,11.3
19-02-2019 6.28,1.55E+12,1.5999298,8.591965,4.1757507,0.13218689,-0.16758728,-0.08427429,10.60567405,76.1364294,11.3
19-02-2019 6.28,1.55E+12,-1.2156525,3.9352417,8.28421,-0.23001099,-0.055725098,-0.18972778,10.60567405,76.1364294,11.3
19-02-2019 6.28,1.55E+12,0.0748291,4.449997,12.050278,-0.10536194,-0.13882446,-0.10343933,10.60567405,76.1364294,11.3
19-02-2019 6.28,1.55E+12,0.4123993,6.0924225,9.751846,-0.049972534,-0.04295349,-0.10450745,10.60567405,76.1364294,11.3
19-02-2019 6.28,1.55E+12,0.4985962,7.0213776,7.640167,0.10874939,-0.032287598,-0.23980713,10.60567405,76.1364294,11.3
19-02-2019 6.28,1.55E+12,1.5185242,4.7013855,10.93219,-0.073410034,0.026290894,-0.17800903,10.60567405,76.1364294,11.3
19-02-2019 6.28,1.55E+12,3.6900635,8.821808,1.5133972,0.47413635,0.015640259,-0.16629028,10.60567405,76.1364294,11.3
19-02-2019 6.28,1.55E+12,-0.049682617,0.9712219,15.871429,-0.052108765,0.29794312,-0.30903625,10.60567405,76.1364294,11.3
19-02-2019 6.28,1.55E+12,5.8089294,2.908142,13.613693,0.25149536,-0.2559967,-0.07574463,10.60567405,76.1364294,11.3
19-02-2019 6.28,1.55E+12,-4.268265,6.947159,2.298706,0.63072205,0.55467224,-0.27494812,10.60567405,76.1364294,11.3
19-02-2019 6.28,1.55E+12,3.7762604,-1.1500397,17.849045,-0.7391968,-0.67144775,-0.059768677,10.60567405,76.1364294,11.3
19-02-2019 6.28,1.55E+12,-1.4502869,12.362839,-1.3572388,0.2578888,0.06997681,-0.15563965,10.60567405,76.1364294,11.3
19-02-2019 6.28,1.55E+12,-1.2443848,7.909622,2.1430817,-0.3226776,-0.12817383,-0.20465088,10.60567405,76.1364294,11.3
19-02-2019 6.28,1.55E+12,-0.30825806,4.7708282,10.702347,-0.391922,-0.36465454,-0.17375183,10.60567405,76.1364294,11.3
19-02-2019 6.28,1.55E+12,-2.482193,3.1762848,14.0733795,-0.057434082,0.004989624,-0.17588806,10.60567405,76.1364294,11.3
19-02-2019 6.28,1.55E+12,-0.8421631,10.442688,0.7448578,0.45495605,-0.29328918,-0.10131836,10.60567405,76.1364294,11.3
19-02-2019 6.28,1.55E+12,-4.0695343,3.205017,7.757477,-0.44732666,-0.09941101,-0.23448181,10.60567405,76.1364294,11.3
19-02-2019 6.28,1.55E+12,3.948639,9.101929,6.615448,-0.1138916,-0.63842773,-0.007568359,10.60567405,76.1364294,11.3
19-02-2019 6.28,1.55E+12,-5.5443726,8.59436,3.7591705,0.08105469,0.44281006,-0.28347778,10.60567405,76.1364294,11.3
19-02-2019 6.28,1.55E+12,6.0842743,5.1826324,12.418991,-0.23001099,-0.57450867,-0.111968994,10.60567405,76.1364294,11.3
19-02-2019 6.28,1.55E+12,-2.245163,8.467468,2.9834442,0.43258667,0.47157288,-0.32608032,10.60567405,76.1364294,11.3
19-02-2019 6.28,1.55E+12,4.6190186,4.727722,10.597,-0.09791565,-0.15161133,-0.16416931,10.60567405,76.1364294,11.3
19-02-2019 6.28,1.55E+12,0.11552429,5.256851,10.877121,0.036315918,0.16371155,-0.22276306,10.60567405,76.1364294,11.3
19-02-2019 6.28,1.55E+12,3.5248718,7.46669,8.075912,0.08956909,-0.006729126,-0.17268372,10.60567405,76.1364294,11.3
19-02-2019 6.28,1.55E+12,0.81703186,5.3286743,8.997681,-0.059570312,0.09020996,-0.18867493,10.60567405,76.1364294,11.3
19-02-2019 6.28,1.55E+12,1.3413544,7.536133,11.18837,0.11833191,0.03161621,-0.17375183,10.60567405,76.1364294,11.3
19-02-2019 6.28,1.55E+12,2.5121155,6.7771606,9.4118805,0.20675659,-0.063186646,-0.14286804,10.60567405,76.1364294,11.3
19-02-2019 6.28,1.55E+12,-1.4191589,4.7708282,6.8500824,0.470932,0.22337341,-0.22488403,10.60567405,76.1364294,11.3
19-02-2019 6.28,1.55E+12,5.4210815,0.12606812,18.495468,-0.29286194,-0.51911926,0.004150391,10.60567405,76.1364294,11.3
19-02-2019 6.28,1.55E+12,-4.5555573,8.002991,1.4391785,0.7681427,0.30326843,-0.19612122,10.60567405,76.1364294,11.3
19-02-2019 6.28,1.55E+12,1.1498108,4.6415405,10.221115,-0.2534485,-0.54681396,-0.11090088,10.60567405,76.1364294,11.3
19-02-2019 6.28,1.55E+12,-2.1278381,5.8601837,9.313705,0.095962524,-0.19421387,-0.16203308,10.60567405,76.1364294,11.3
19-02-2019 6.28,1.55E+12,-0.14305115,8.204117,5.5069275,0.22380066,-0.19421387,-0.090667725,10.60567405,76.1364294,11.3
19-02-2019 6.28,1.55E+12,0.2926941,3.9687653,6.203644,-0.11602783,-0.21446228,-0.15351868,10.60567405,76.1364294,11.3
19-02-2019 6.28,1.55E+12,-1.0744019,6.0804596,7.403137,0.00541687,-0.053604126,-0.17800903,10.60567405,76.1364294,11.3
19-02-2019 6.28,1.55E+12,1.2336121,5.9894714,8.537994,-0.15969849,-0.19528198,-0.100250244,10.60567405,76.1364294,11.3
19-02-2019 6.28,1.55E+12,-0.52612305,9.824982,1.1877899,0.23658752,0.046539307,-0.22595215,10.60567405,76.1364294,11.3
19-02-2019 6.28,1.55E+12,2.0165253,2.599289,12.184357,-0.4196167,-0.17077637,-0.19718933,10.60567405,76.1364294,11.3
19-02-2019 6.28,1.55E+12,1.5927429,5.529785,8.602631,0.20036316,0.007125855,-0.1354065,10.60567405,76.1364294,11.3
19-02-2019 6.28,1.55E+12,-2.190094,6.3605804,8.277023,0.17160034,0.075302124,-0.17907715,10.60567405,76.1364294,11.3
19-02-2019 6.28,1.55E+12,1.1522064,3.4875336,15.356674,-0.13839722,-0.34228516,-0.13433838,10.60567405,76.1364294,11.3
19-02-2019 6.28,1.55E+12,-0.34895325,7.3086853,4.9299316,0.44856262,-0.02909851,-0.1354065,10.60567405,76.1364294,11.3
19-02-2019 6.28,1.55E+12,0.8457489,6.9926453,5.20047,0.12686157,-0.17503357,-0.18440247,10.60567405,76.1364294,11.3
19-02-2019 6.28,1.55E+12,-2.0847473,4.268036,12.526733,0.03843689,-0.035491943,-0.24406433,10.60567405,76.1364294,11.3
19-02-2019 6.28,1.55E+12,3.2591095,6.0182037,12.605743,0.2578888,-0.38383484,-0.04272461,10.60567405,76.1364294,11.3
19-02-2019 6.28,1.55E+12,-2.439087,5.338257,5.559601,0.4155426,0.05079651,-0.17800903,10.60567405,76.1364294,11.3
19-02-2019 6.28,1.55E+12,1.2431946,6.6574554,6.045624,0.09170532,-0.36679077,-0.14819336,10.60567405,76.1364294,11.3
19-02-2019 6.28,1.55E+12,-0.09037781,4.5433807,13.570602,-0.11495972,-0.15266418,-0.16523743,10.60567405,76.1364294,11.3
19-02-2019 6.28,1.55E+12,0.38845825,10.655777,3.0935822,0.4943695,-0.049331665,-0.1354065,10.60567405,76.1364294,11.3
19-02-2019 6.28,1.55E+12,2.1529846,2.9871368,10.204361,-0.33013916,-0.09194946,-0.18972778,10.60567405,76.1364294,11.3
19-02-2019 6.28,1.55E+12,1.3748779,8.908005,5.382431,0.30795288,-0.02696228,-0.17481995,10.60567405,76.1364294,11.3
19-02-2019 6.28,1.55E+12,1.7675171,5.4124756,13.168381,-0.35357666,0.008178711,-0.14819336,10.60567405,76.1364294,11.3
19-02-2019 6.28,1.55E+12,2.394806,10.725204,1.096817,0.4943695,7.32E-04,-0.18121338,10.60567405,76.1364294,11.3
19-02-2019 6.28,1.55E+12,1.1378479,5.2472687,9.055145,-0.21296692,0.08381653,-0.2888031,10.60567405,76.1364294,11.3
19-02-2019 6.28,1.55E+12,-0.10473633,6.22171,9.979294,0.041641235,-0.063186646,-0.16842651,10.60567405,76.1364294,11.3
19-02-2019 6.28,1.55E+12,4.3412933,8.661407,5.049637,-0.014816284,-0.14308167,-0.0927887,10.60567405,76.1364294,11.3
19-02-2019 6.28,1.55E+12,0.09397888,9.638229,4.860504,0.053359985,0.102996826,-0.26322937,10.60567405,76.1364294,11.3
19-02-2019 6.28,1.55E+12,4.3724213,5.9032745,11.66243,-0.44625854,-0.08981323,-0.23127747,10.60567405,76.1364294,11.3
19-02-2019 6.28,1.55E+12,3.201645,13.940613,-3.9190369,0.7116852,0.1519928,-0.19186401,10.60567405,76.1364294,11.3
19-02-2019 6.28,1.55E+12,-0.28909302,3.2816315,12.526733,-0.46437073,0.25106812,-0.36550903,10.60567405,76.1364294,11.3
19-02-2019 6.28,1.55E+12,5.7371063,2.9248962,17.659897,-0.044647217,-0.49035645,0.019058228,10.60567405,76.1364294,11.3
19-02-2019 6.28,1.55E+12,-3.4087372,12.156937,-6.693924,0.7095642,0.27130127,-0.08001709,10.60567405,76.1364294,11.3
19-02-2019 6.28,1.55E+12,-2.2499542,0.078186035,15.847488,-1.0726318,-0.55960083,-0.158844,10.60567405,76.1364294,11.3
19-02-2019 6.28,1.55E+12,2.6102753,13.176865,1.1710358,0.14283752,-0.62138367,0.028640747,10.60567405,76.1364294,11.3
19-02-2019 6.28,1.55E+12,-4.213196,9.568802,-1.8552399,-0.12347412,0.24360657,-0.17163086,10.60567405,76.1364294,11.3
19-02-2019 6.28,1.55E+12,3.2519226,-1.3846741,20.583221,-0.41003418,-0.5862274,-0.13114929,10.60567405,76.1364294,11.3
19-02-2019 6.28,1.55E+12,4.3269196,2.9320831,13.850723,0.6637573,-0.025909424,0.009475708,10.60567405,76.1364294,11.3
19-02-2019 6.28,1.55E+12,-7.7494354,4.9288483,7.7598724,1.2677612,0.4023285,-0.11729431,10.60567405,76.1364294,11.3
19-02-2019 6.28,1.55E+12,4.707596,-4.4588165,26.446625,-0.5613098,-1.1401672,0.07765198,10.60567405,76.1364294,11.3
19-02-2019 6.28,1.55E+12,-6.051941,12.961395,-3.6341248,1.2901306,0.04121399,-0.004379273,10.60567405,76.1364294,11.3
19-02-2019 6.28,1.55E+12,-3.633789,4.596054,11.621719,-0.64971924,-0.69488525,0.01586914,10.60567405,76.1364294,11.3
19-02-2019 6.28,1.55E+12,1.2072754,9.523315,1.7384644,-0.15437317,-0.91859436,0.07977295,10.60567405,76.1364294,11.3
19-02-2019 6.28,1.55E+12,-5.230728,11.984558,-5.1424713,0.13537598,0.15731812,-0.10557556,10.60567405,76.1364294,11.3
19-02-2019 6.28,1.55E+12,4.7937927,2.9967194,17.147537,-0.95651245,-0.86213684,0.063797,10.60567405,76.1364294,11.3
19-02-2019 6.28,1.55E+12,-2.0943298,12.915894,0.8909149,0.75323486,0.3746338,-0.11515808,10.60567405,76.1364294,11.3
19-02-2019 6.28,1.55E+12,4.3819885,1.8618622,16.809952,-0.2992401,-0.19953918,-0.025680542,10.60567405,76.1364294,11.3
19-02-2019 6.28,1.55E+12,2.8473053,5.1467133,9.062317,0.3846588,-0.023773193,-0.06829834,10.60567405,76.1364294,11.3
19-02-2019 6.28,1.55E+12,0.82899475,7.971878,4.412781,0.32392883,0.15306091,-0.08639526,10.60567405,76.1364294,11.3
19-02-2019 6.28,1.55E+12,1.3246002,6.679001,8.183655,-0.10003662,-0.23362732,-0.06829834,10.60567405,76.1364294,11.3
19-02-2019 6.28,1.55E+12,1.9351196,6.6694336,8.911484,-0.16288757,-0.12710571,-0.038467407,10.60567405,76.1364294,11.3
19-02-2019 6.28,1.55E+12,1.6980896,10.054825,3.8932343,0.21954346,-0.06637573,-0.016098022,10.60567405,76.1364294,11.3
19-02-2019 6.28,1.55E+12,2.9071655,4.734909,11.138092,-0.27261353,0.002853394,-0.09599304,10.60567405,76.1364294,11.3
19-02-2019 6.28,1.55E+12,2.8305511,7.560074,6.1892853,0.17373657,-0.10153198,0.016921997,10.60567405,76.1364294,11.3
19-02-2019 6.28,1.55E+12,0.64224243,5.869766,8.214767,-0.10430908,0.08595276,-0.038467407,10.60567405,76.1364294,11.3
19-02-2019 6.28,1.55E+12,3.0388489,6.7436523,7.8987427,0.10021973,-0.23469543,0.01159668,10.60567405,76.1364294,11.3
19-02-2019 6.28,1.55E+12,-2.261917,5.951172,4.453476,0.074661255,0.08062744,-0.065093994,10.60567405,76.1364294,11.3
19-02-2019 6.28,1.55E+12,3.0508118,4.090866,14.743759,-0.3184204,-0.5436249,0.10960388,10.60567405,76.1364294,11.3
19-02-2019 6.28,1.55E+12,-1.1653748,8.852936,4.690506,0.26107788,-0.047210693,-0.005447388,10.60567405,76.1364294,11.3
19-02-2019 6.28,1.55E+12,-0.6147156,5.2783966,7.9825287,-0.20869446,-0.26664734,0.012664795,10.60567405,76.1364294,11.3
19-02-2019 6.28,1.55E+12,1.046875,8.055664,4.9323273,0.03843689,-0.35614014,0.005203247,10.60567405,76.1364294,11.3
19-02-2019 6.28,1.55E+12,-1.6513977,7.6342926,2.9211884,0.06613159,7.32E-04,-0.04486084,10.60567405,76.1364294,11.3
19-02-2019 6.28,1.55E+12,1.7938538,4.4643707,8.674454,-0.11175537,-0.3859558,0.0680542,10.60567405,76.1364294,11.3
19-02-2019 6.28,1.55E+12,-0.13586426,4.6415405,13.493988,-0.061691284,-0.10473633,-0.015029907,10.60567405,76.1364294,11.3
19-02-2019 6.28,1.55E+12,0.8122406,7.742035,5.602707,0.31114197,-0.17823792,0.054214478,10.60567405,76.1364294,11.3
19-02-2019 6.28,1.55E+12,-1.4263458,3.880188,7.2331543,-0.19378662,-0.10580444,-0.043792725,10.60567405,76.1364294,11.3
19-02-2019 6.28,1.55E+12,1.8632965,6.022995,11.418213,0.13858032,-0.36253357,0.032913208,10.60567405,76.1364294,11.3
19-02-2019 6.28,1.55E+12,-0.9618683,4.868988,6.3568726,0.12579346,0.02949524,0.020126343,10.60567405,76.1364294,11.3
19-02-2019 6.28,1.55E+12,-0.67456055,3.8394775,10.036758,0.20143127,-0.26664734,0.07232666,10.60567405,76.1364294,11.3
19-02-2019 6.28,1.55E+12,2.2703094,3.540207,15.272873,-0.005233765,-0.34014893,0.06700134,10.60567405,76.1364294,11.3
19-02-2019 6.28,1.55E+12,-2.9538422,7.9814453,0.33306885,0.5327301,0.042266846,0.026519775,10.60567405,76.1364294,11.3
19-02-2019 6.28,1.55E+12,-0.8469391,3.4947205,14.856293,-0.5368042,-0.51486206,0.080841064,10.60567405,76.1364294,11.3
19-02-2019 6.28,1.55E+12,0.56562805,10.296646,0.4910736,0.133255,-0.3816986,0.09788513,10.60567405,76.1364294,11.3
19-02-2019 6.28,1.55E+12,-4.174881,7.5911865,3.615509,-0.3088379,-0.06637573,-0.01928711,10.60567405,76.1364294,11.3
19-02-2019 6.28,1.55E+12,4.463394,3.8442688,12.383072,-0.62841797,-0.7769165,0.17565918,10.60567405,76.1364294,11.3
19-02-2019 6.28,1.55E+12,-2.9442596,12.803375,-5.1041718,0.82141113,0.43641663,-0.07255554,10.60567405,76.1364294,11.3
19-02-2019 6.28,1.55E+12,4.7650604,-1.6073303,20.056488,-0.47714233,-0.40299988,0.06700134,10.60567405,76.1364294,11.3
19-02-2019 6.28,1.55E+12,2.3708649,10.593521,3.7208557,1.042984,0.23721313,0.03929138,10.60567405,76.1364294,11.3
19-02-2019 6.28,1.55E+12,1.8201904,0.6456146,19.673416,0.19396973,0.20632935,-0.00970459,10.60567405,76.1364294,11.3
19-02-2019 6.28,1.55E+12,5.722748,3.1619263,16.642365,0.3324585,-0.27197266,0.12132263,10.60567405,76.1364294,11.3
19-02-2019 6.28,1.55E+12,-3.3776245,7.3972626,2.3609467,0.7585602,0.49075317,-0.039535522,10.60567405,76.1364294,11.3
19-02-2019 6.28,1.55E+12,3.2591095,3.5306244,13.46286,-0.32695007,-0.61499023,0.11706543,10.60567405,76.1364294,11.3
19-02-2019 6.28,1.55E+12,-1.5508423,9.439514,-2.4753418,0.3175354,0.026290894,0.06700134,10.60567405,76.1364294,11.3
19-02-2019 6.28,1.55E+12,1.7387848,5.019821,10.968109,-0.5911255,-0.3955536,0.13517761,10.60567405,76.1364294,11.3
19-02-2019 6.28,1.55E+12,-0.23881531,3.932846,12.641647,-0.18632507,-0.18995667,0.053146362,10.60567405,76.1364294,11.3
19-02-2019 6.28,1.55E+12,0.7643585,8.754776,3.4981995,0.470932,-0.063186646,0.113861084,10.60567405,76.1364294,11.3
19-02-2019 6.28,1.55E+12,-1.4239502,1.3806305,15.892975,0.121536255,-0.12817383,0.022247314,10.60567405,76.1364294,11.3
19-02-2019 6.28,1.55E+12,1.987793,3.3295135,11.832413,0.35908508,-0.3018036,0.13623047,10.60567405,76.1364294,11.3
19-02-2019 6.28,1.55E+12,-4.4693756,6.6335144,3.3593292,0.7159424,0.007125855,0.12557983,10.60567405,76.1364294,11.3
19-02-2019 6.28,1.55E+12,0.40283203,0.3966217,18.83545,-0.50164795,-0.61073303,0.14050293,10.60567405,76.1364294,11.3
19-02-2019 6.28,1.55E+12,-2.1398163,8.75238,0.04336548,0.5114136,-0.2986145,0.17884827,10.60567405,76.1364294,11.3
19-02-2019 6.28,1.55E+12,-2.3768463,7.7947083,3.7831116,-0.10536194,-0.21658325,0.07658386,10.60567405,76.1364294,11.3
19-02-2019 6.28,1.55E+12,1.5711975,3.6766815,14.284073,-0.32481384,-0.48928833,0.16712952,10.60567405,76.1364294,11.3
19-02-2019 6.28,1.55E+12,0.4914093,11.103485,1.8821106,0.5827942,0.05293274,0.115997314,10.60567405,76.1364294,11.3
19-02-2019 6.28,1.55E+12,1.1474304,2.70224,14.176331,-0.22894287,-0.119644165,0.05101013,10.60567405,76.1364294,11.3
19-02-2019 6.28,1.55E+12,1.798645,5.7524414,6.1437836,0.35269165,-0.037628174,0.05101013,10.60567405,76.1364294,11.3
19-02-2019 6.28,1.55E+12,-1.249176,6.386917,3.7064972,0.21315002,0.065704346,0.04675293,10.60567405,76.1364294,11.3
19-02-2019 6.28,1.55E+12,1.3078308,5.161072,10.69278,-0.2715454,-0.27624512,0.07232666,10.60530034,76.13612386,11.62
19-02-2019 6.28,1.55E+12,0.85054016,6.0277863,4.429535,-0.12667847,-0.06958008,0.1149292,10.60530034,76.13612386,11.62
19-02-2019 6.28,1.55E+12,0.36212158,7.588806,7.0440063,-0.17674255,-0.074905396,0.09576416,10.60530034,76.13612386,11.62
19-02-2019 6.28,1.55E+12,1.9973602,3.9544067,12.189148,-0.44732666,-0.10899353,0.05633545,10.60530034,76.13612386,11.62
19-02-2019 6.28,1.55E+12,1.1689758,11.718796,-2.484909,0.59558105,0.12004089,0.044631958,10.60530034,76.13612386,11.62
19-02-2019 6.28,1.55E+12,0.888855,3.477951,11.779739,-0.39512634,-3.36E-04,0.003082275,10.60530034,76.13612386,11.62
19-02-2019 6.28,1.55E+12,2.8233643,5.553726,9.610596,0.14709473,-0.12922668,0.092559814,10.60530034,76.13612386,11.62
19-02-2019 6.28,1.55E+12,-0.6985016,7.2224884,5.37764,0.11514282,0.14559937,0.06272888,10.60530034,76.13612386,11.62
19-02-2019 6.28,1.55E+12,2.2631226,6.7292786,10.127747,-0.05529785,-0.2474823,0.080841064,10.60530034,76.13612386,11.62
19-02-2019 6.28,1.55E+12,-0.1765747,8.984619,2.7990875,0.07040405,0.06997681,0.040359497,10.60530034,76.13612386,11.62
19-02-2019 6.28,1.55E+12,-0.11671448,7.023773,9.316101,-0.2854004,-0.13456726,0.12345886,10.60530034,76.13612386,11.62
19-02-2019 6.28,1.55E+12,2.7850647,9.674149,6.3808136,-0.13412476,-0.2197876,0.14476013,10.60530034,76.13612386,11.62
19-02-2019 6.28,1.55E+12,-2.1924896,8.405228,3.8501434,-0.038253784,0.1796875,-0.010772705,10.60530034,76.13612386,11.62
19-02-2019 6.28,1.55E+12,2.9430695,5.362198,9.591446,-0.32695007,-0.33909607,0.10002136,10.60530034,76.13612386,11.62
19-02-2019 6.28,1.55E+12,-1.0241241,10.813782,-1.0771179,0.44963074,0.26811218,-0.016098022,10.60530034,76.13612386,11.62
19-02-2019 6.28,1.55E+12,2.9718018,2.6064606,13.369492,-0.46969604,-0.17184448,0.08830261,10.60530034,76.13612386,11.62
19-02-2019 6.28,1.55E+12,2.6581726,8.852936,6.1437836,0.40489197,0.1051178,0.06272888,10.60530034,76.13612386,11.62
19-02-2019 6.28,1.55E+12,1.5520477,4.359024,11.063873,-0.14265442,0.22869873,0.040359497,10.60530034,76.13612386,11.62
19-02-2019 6.28,1.55E+12,3.7403412,6.228897,10.810089,0.0821228,-0.053604126,0.082977295,10.60530034,76.13612386,11.62
19-02-2019 6.28,1.55E+12,0.13227844,7.718094,5.722412,0.24191284,0.3714447,-0.05230713,10.60530034,76.13612386,11.62
19-02-2019 6.28,1.55E+12,2.9023743,6.2073517,8.490112,-0.17355347,-0.17823792,0.13943481,10.60530034,76.13612386,11.62
19-02-2019 6.28,1.55E+12,0.82180786,6.0205994,8.832474,-0.11495972,0.09339905,0.052078247,10.60530034,76.13612386,11.62
19-02-2019 6.28,1.55E+12,2.004547,8.199326,4.4510956,0.19503784,0.01777649,0.054214478,10.60530034,76.13612386,11.62
19-02-2019 6.28,1.55E+12,-0.31782532,5.419647,6.773468,-0.24385071,0.14666748,0.024383545,10.60530034,76.13612386,11.62
19-02-2019 6.28,1.55E+12,3.055603,8.584793,6.7830353,0.1375122,-0.11112976,0.07337952,10.60530034,76.13612386,11.62
19-02-2019 6.28,1.55E+12,1.0133514,5.3645935,8.16449,-0.15544128,0.20100403,0.020126343,10.60530034,76.13612386,11.62
19-02-2019 6.28,1.55E+12,3.5248718,7.7563934,6.421509,0.09063721,-0.02909851,0.07872009,10.60530034,76.13612386,11.62
19-02-2019 6.28,1.55E+12,1.0803833,5.98468,11.715103,-0.085128784,0.2691803,-0.065093994,10.60530034,76.13612386,11.62
19-02-2019 6.28,1.55E+12,3.1154633,6.3294525,7.2786407,0.121536255,0.030563354,0.033966064,10.60530034,76.13612386,11.62
19-02-2019 6.28,1.55E+12,-0.6649933,6.731674,6.749527,0.15029907,0.29794312,-0.07362366,10.60530034,76.13612386,11.62
19-02-2019 6.28,1.55E+12,2.56958,4.239319,9.550735,-0.13839722,-0.13243103,0.055282593,10.60530034,76.13612386,11.62
19-02-2019 6.28,1.55E+12,-1.3736725,7.8904724,1.5684662,0.16734314,0.13920593,0.024383545,10.60530034,76.13612386,11.62
19-02-2019 6.28,1.55E+12,0.12031555,3.9568024,12.423782,-0.39405823,-0.16438293,0.003082275,10.60530034,76.13612386,11.62
19-02-2019 6.28,1.55E+12,0.25917053,8.848145,3.7424011,0.02671814,-0.098342896,0.07444763,10.60530034,76.13612386,11.62
19-02-2019 6.28,1.55E+12,-2.1685486,6.659851,6.871628,-0.15116882,0.122161865,-0.036331177,10.60530034,76.13612386,11.62
19-02-2019 6.28,1.55E+12,3.0484161,6.5473175,8.6098175,-0.01802063,-0.24641418,0.05847168,10.60530034,76.13612386,11.62
19-02-2019 6.28,1.55E+12,-0.67456055,7.363739,2.8613434,0.17053223,0.30752563,-0.050186157,10.60530034,76.13612386,11.62
19-02-2019 6.28,1.55E+12,3.0364532,4.035797,15.871429,-0.054229736,-0.07064819,-0.024612427,10.60530034,76.13612386,11.62
19-02-2019 6.28,1.55E+12,0.9175873,5.1945953,9.354416,0.32180786,0.25746155,-0.05657959,10.60530034,76.13612386,11.62
19-02-2019 6.28,1.55E+12,0.7978668,7.3924713,3.1989136,0.39956665,0.19140625,-0.03526306,10.60530034,76.13612386,11.62
19-02-2019 6.28,1.55E+12,0.89364624,3.4683838,10.369553,-0.2864685,-0.003540039,-0.020355225,10.60530034,76.13612386,11.62
19-02-2019 6.28,1.55E+12,1.070816,7.512192,6.9961243,0.095962524,0.03375244,0.036102295,10.60530034,76.13612386,11.62
19-02-2019 6.28,1.55E+12,1.0037689,6.173828,9.850006,-0.08299255,0.09553528,-0.024612427,10.60530034,76.13612386,11.62
19-02-2019 6.28,1.55E+12,0.3310089,6.4874725,5.9139404,0.15774536,0.11683655,-0.07788086,10.60530034,76.13612386,11.62
19-02-2019 6.28,1.55E+12,0.61112976,5.7356873,9.445389,-0.11921692,-0.001403809,-0.020355225,10.60530034,76.13612386,11.62
19-02-2019 6.28,1.55E+12,0.70210266,6.544922,8.640945,0.06933594,0.049728394,-0.024612427,10.60530034,76.13612386,11.62
19-02-2019 6.28,1.55E+12,0.7116852,5.762024,6.050415,0.046966553,0.067840576,-0.041656494,10.60530034,76.13612386,11.62
19-02-2019 6.28,1.55E+12,0.7523804,6.0373535,9.17485,0.08956909,-0.004592896,-0.059768677,10.60530034,76.13612386,11.62
19-02-2019 6.28,1.55E+12,5.95E-04,4.121994,9.311325,0.025665283,0.10406494,-0.06616211,10.60530034,76.13612386,11.62
19-02-2019 6.28,1.55E+12,-0.7080841,6.611969,6.177307,0.30262756,0.01777649,-0.010772705,10.60530034,76.13612386,11.62
19-02-2019 6.28,1.55E+12,0.69252014,4.3446503,12.383072,-0.12347412,-0.10899353,-0.013961792,10.60530034,76.13612386,11.62
19-02-2019 6.28,1.55E+12,-0.9115906,6.3725433,5.9019775,0.29837036,-0.016311646,-0.004379273,10.60530034,76.13612386,11.62
19-02-2019 6.28,1.55E+12,0.8816681,5.553726,9.881134,-0.049972534,-0.11645508,0.016921997,10.60530034,76.13612386,11.62
19-02-2019 6.28,1.55E+12,-0.12390137,6.157074,9.232315,0.059753418,-0.010986328,-0.016098022,10.60530034,76.13612386,11.62
19-02-2019 6.28,1.55E+12,0.65182495,9.872864,1.3745422,0.34629822,0.05079651,-0.02355957,10.60530034,76.13612386,11.62
19-02-2019 6.28,1.55E+12,0.5488739,2.9009552,14.439697,-0.22148132,0.001800537,-0.060836792,10.60530034,76.13612386,11.62
19-02-2019 6.28,1.55E+12,2.6054993,6.6981506,7.697632,0.3409729,-0.020584106,0.014801025,10.60530034,76.13612386,11.62
19-02-2019 6.28,1.55E+12,-0.81822205,5.7596283,8.863602,0.13218689,0.19354248,-0.02355957,10.60530034,76.13612386,11.62
19-02-2019 6.28,1.55E+12,1.6214752,3.5976715,10.503632,-0.005233765,-0.088760376,-0.04698181,10.60530034,76.13612386,11.62
19-02-2019 6.28,1.55E+12,-2.269104,9.010956,1.7911377,0.49864197,0.15092468,-0.050186157,10.60530034,76.13612386,11.62
19-02-2019 6.28,1.55E+12,0.9415283,0.3319702,19.048538,-0.741333,-0.31140137,0.044631958,10.60530034,76.13612386,11.62
19-02-2019 6.28,1.55E+12,-0.6194916,12.312561,-2.0707245,0.46455383,-0.041885376,0.01159668,10.60530034,76.13612386,11.62
19-02-2019 6.28,1.55E+12,-2.7335815,4.4093018,10.520386,-0.67529297,-0.047210693,-0.065093994,10.60530034,76.13612386,11.62
19-02-2019 6.28,1.55E+12,3.268692,12.767456,-2.1832428,-0.169281,-0.41152954,0.01159668,10.60530034,76.13612386,11.62
19-02-2019 6.28,1.55E+12,-5.4653625,10.042862,-2.1233826,-0.31523132,0.41085815,-0.17481995,10.60530034,76.13612386,11.62
19-02-2019 6.28,1.55E+12,7.8799133,5.929611,14.118881,-0.9128418,-0.6022186,0.06272888,10.60530034,76.13612386,11.62
19-02-2019 6.28,1.55E+12,-1.6585846,12.042007,-6.44014,0.6488342,0.7975464,-0.19400024,10.60530034,76.13612386,11.62
19-02-2019 6.28,1.55E+12,5.605423,-0.55148315,19.539352,-0.63586426,-0.09727478,-0.057647705,10.60530034,76.13612386,11.62
19-02-2019 6.28,1.55E+12,3.6349945,8.608734,5.0687866,0.85549927,0.4033966,-0.09173584,10.60530034,76.13612386,11.62
19-02-2019 6.28,1.55E+12,0.165802,3.9208832,10.850784,0.21847534,0.53549194,-0.12475586,10.60530034,76.13612386,11.62
19-02-2019 6.28,1.55E+12,6.553528,-0.5131836,21.014175,-0.30563354,-0.3721161,0.07551575,10.60530034,76.13612386,11.62
19-02-2019 6.28,1.55E+12,-4.392761,11.424316,-1.0052948,1.1516418,0.5940857,-0.13327026,10.60530034,76.13612386,11.62
19-02-2019 6.28,1.55E+12,2.7371674,-3.0749817,22.354935,-1.092865,-0.626709,0.09576416,10.60530034,76.13612386,11.62
19-02-2019 6.28,1.55E+12,-3.2435455,14.110611,-4.3883057,0.8160858,0.04547119,0.006271362,10.60530034,76.13612386,11.62
19-02-2019 6.28,1.55E+12,-2.7599182,4.418869,6.864441,-0.727478,-0.23895264,0.016921997,10.60530034,76.13612386,11.62
19-02-2019 6.28,1.55E+12,2.0979156,8.582397,5.4398956,-0.2864685,-0.5542755,0.10748291,10.60530034,76.13612386,11.62
19-02-2019 6.28,1.55E+12,-3.7894135,9.176163,0.25883484,0.05015564,0.28089905,-0.08320618,10.60530034,76.13612386,11.62
19-02-2019 6.28,1.55E+12,4.147354,4.734909,9.026413,-0.57514954,-0.49461365,0.08830261,10.60530034,76.13612386,11.62
19-02-2019 6.28,1.55E+12,-2.1398163,10.543243,-0.25830078,0.43258667,0.41192627,-0.13859558,10.60530034,76.13612386,11.62
19-02-2019 6.28,1.55E+12,3.8217468,2.6687164,12.588974,-0.41322327,-0.2006073,0.020126343,10.60530034,76.13612386,11.62
19-02-2019 6.28,1.55E+12,0.9870148,5.967926,9.153305,0.15455627,0.2180481,-0.022491455,10.60530034,76.13612386,11.62
19-02-2019 6.28,1.55E+12,2.4714203,5.2424774,10.625732,0.20568848,0.12750244,-0.03314209,10.60530034,76.13612386,11.62
19-02-2019 6.28,1.55E+12,1.5089417,4.2153625,9.512436,-0.0158844,0.08807373,-0.017166138,10.60530034,76.13612386,11.62
19-02-2019 6.28,1.55E+12,0.36930847,6.4276123,7.8077545,0.31541443,0.13175964,-0.060836792,10.60530034,76.13612386,11.62
19-02-2019 6.28,1.55E+12,0.3501587,4.098053,9.979294,-0.14265442,-0.049331665,0.024383545,10.60530034,76.13612386,11.62
19-02-2019 6.28,1.55E+12,0.8433533,7.4235992,4.5229187,0.12898254,-0.063186646,0.053146362,10.60530034,76.13612386,11.62
19-02-2019 6.28,1.55E+12,0.31184387,4.940811,7.0966797,-0.15437317,-0.019515991,-0.040603638,10.60530034,76.13612386,11.62
19-02-2019 6.28,1.55E+12,0.0748291,5.9415894,5.5859375,-0.044647217,-0.06211853,0.005203247,10.60530034,76.13612386,11.62
19-02-2019 6.28,1.55E+12,0.92715454,7.8282166,5.2172394,0.09170532,-0.034423828,0.012664795,10.60530034,76.13612386,11.62
19-02-2019 6.28,1.55E+12,-0.08798218,1.7589111,13.211472,-0.1415863,-0.003540039,-0.025680542,10.60530034,76.13612386,11.62
19-02-2019 6.28,1.55E+12,3.1441956,6.070877,9.940994,0.28877258,-0.1068573,0.071258545,10.60530034,76.13612386,11.62
19-02-2019 6.28,1.55E+12,-0.8206024,2.944046,12.292099,0.23764038,0.23188782,-0.03526306,10.60530034,76.13612386,11.62
19-02-2019 6.28,1.55E+12,2.8951874,4.5457764,10.355194,0.21847534,-0.1686554,0.036102295,10.60530034,76.13612386,11.62
19-02-2019 6.28,1.55E+12,-2.8006134,6.1355133,6.8548737,0.47946167,0.21377563,-0.08320618,10.60530034,76.13612386,11.62
19-02-2019 6.28,1.55E+12,1.537674,3.2528992,11.739044,-0.17567444,-0.3497467,0.063797,10.60530034,76.13612386,11.62
19-02-2019 6.28,1.55E+12,-1.2707214,7.663025,5.643402,0.19503784,-0.06425476,0.019058228,10.60530034,76.13612386,11.62
19-02-2019 6.28,1.55E+12,0.44352722,6.5832367,4.831772,0.018203735,-0.110061646,-0.027816772,10.60530034,76.13612386,11.62
19-02-2019 6.28,1.55E+12,-0.8756714,6.3294525,4.1183014,-0.07980347,-0.08981323,-0.017166138,10.60530034,76.13612386,11.62
19-02-2019 6.28,1.55E+12,0.11312866,7.265579,8.353638,-0.1138916,-0.11538696,0.02758789,10.60530034,76.13612386,11.62
19-02-2019 6.28,1.55E+12,1.4730377,5.3454285,7.7191772,-0.23745728,-0.09301758,0.057403564,10.60530034,76.13612386,11.62
19-02-2019 6.28,1.55E+12,-0.09996033,8.888855,4.355316,0.1566925,0.08062744,-0.03526306,10.60530034,76.13612386,11.62
19-02-2019 6.28,1.55E+12,1.4275513,3.2505035,13.635239,-0.29711914,-0.10366821,-0.016098022,10.60530034,76.13612386,11.62
19-02-2019 6.28,1.55E+12,0.8840637,8.268753,5.0233,0.42193604,0.11790466,0.01586914,10.60530034,76.13612386,11.62
19-02-2019 6.28,1.55E+12,-0.49020386,4.663086,10.508423,0.045898438,0.079559326,-0.01928711,10.60530034,76.13612386,11.62
19-02-2019 6.28,1.55E+12,2.8209686,5.038971,9.577072,0.072525024,-0.18249512,0.07232666,10.60530034,76.13612386,11.62
19-02-2019 6.28,1.55E+12,-1.4622498,6.485077,7.9178925,0.22273254,0.1519928,0.00201416,10.60530034,76.13612386,11.62
19-02-2019 6.28,1.55E+12,2.3038177,3.315155,12.107742,-0.15330505,-0.22723389,0.054214478,10.60530034,76.13612386,11.62
19-02-2019 6.28,1.55E+12,-1.0456696,9.8680725,-0.53842163,0.32925415,0.13601685,9.46E-04,10.60530034,76.13612386,11.62
19-02-2019 6.28,1.55E+12,-0.8828583,5.821884,8.40152,-0.41749573,-0.14201355,-0.002243042,10.60530034,76.13612386,11.62
19-02-2019 6.28,1.55E+12,2.3277588,7.619919,6.450241,-0.27049255,-0.24108887,0.07337952,10.60530034,76.13612386,11.62
19-02-2019 6.28,1.55E+12,-1.5053558,8.536911,6.057602,-0.023345947,0.20205688,-0.057647705,10.60530034,76.13612386,11.62
19-02-2019 6.28,1.55E+12,3.376419,6.8154755,6.967392,-0.3461151,-0.1686554,0.01159668,10.60530034,76.13612386,11.62
19-02-2019 6.28,1.55E+12,-1.1965027,11.117859,-1.227951,0.29516602,0.33628845,-0.123687744,10.60530034,76.13612386,11.62
19-02-2019 6.28,1.55E+12,4.161728,3.61203,16.05339,-0.50590515,-0.08129883,-0.04272461,10.60530034,76.13612386,11.62
19-02-2019 6.28,1.55E+12,3.0723572,8.225662,7.166107,0.42193604,0.24360657,-0.03100586,10.60530034,76.13612386,11.62
19-02-2019 6.28,1.55E+12,1.2743225,5.5417633,6.950638,0.15455627,0.32563782,-0.14179993,10.60530034,76.13612386,11.62
19-02-2019 6.28,1.55E+12,2.236786,5.560913,7.2810364,0.021392822,-0.020584106,-0.057647705,10.60530034,76.13612386,11.62
19-02-2019 6.28,1.55E+12,-0.7272339,6.8753204,6.8500824,0.07040405,0.15306091,-0.078948975,10.60530034,76.13612386,11.62
19-02-2019 6.28,1.55E+12,1.0013733,5.1586914,11.310471,-0.18632507,-0.15161133,0.021194458,10.60530034,76.13612386,11.62
19-02-2019 6.28,1.55E+12,1.4538879,7.7444153,0.28996277,0.01499939,-0.056793213,0.007339478,10.60530034,76.13612386,11.62
19-02-2019 6.28,1.55E+12,-0.957077,7.303894,5.2268066,-0.2118988,0.12110901,-0.08746338,10.60530034,76.13612386,11.62
19-02-2019 6.28,1.55E+12,4.010895,5.31192,10.597,-0.47714233,-0.17930603,-0.006500244,10.60530034,76.13612386,11.62
19-02-2019 6.28,1.55E+12,0.4411316,12.168915,-1.44104,0.50502014,0.38209534,-0.09173584,10.60530034,76.13612386,11.62
19-02-2019 6.28,1.55E+12,3.6828766,-0.18278503,16.637573,-0.4206848,0.09446716,-0.1162262,10.60530034,76.13612386,11.62
19-02-2019 6.28,1.55E+12,4.731537,8.273544,8.600235,0.5604248,0.079559326,-0.010772705,10.60530034,76.13612386,11.62
19-02-2019 6.28,1.55E+12,-0.9427185,1.1723328,14.978394,0.086380005,0.519516,-0.123687744,10.60530034,76.13612386,11.62
19-02-2019 6.28,1.55E+12,5.9741364,6.89209,6.622635,0.50183105,-0.2559967,0.057403564,10.60530034,76.13612386,11.62
19-02-2019 6.28,1.55E+12,-4.562744,3.7652588,10.565872,0.24191284,0.49926758,-0.1439209,10.60530034,76.13612386,11.62
19-02-2019 6.28,1.55E+12,5.2798157,3.0015106,15.701447,-0.073410034,-0.61499023,0.14476013,10.60530034,76.13612386,11.62
19-02-2019 6.28,1.55E+12,-3.470993,7.4044495,1.9060516,0.39637756,0.27130127,-0.026748657,10.60530034,76.13612386,11.62
19-02-2019 6.28,1.55E+12,1.6190796,6.0804596,7.192444,-0.11921692,-0.37104797,0.055282593,10.60530034,76.13612386,11.62
19-02-2019 6.28,1.55E+12,-1.5005646,7.679779,4.6258698,-0.10749817,-0.07383728,-0.012893677,10.60530034,76.13612386,11.62
19-02-2019 6.28,1.55E+12,-0.54766846,7.7396393,7.1397705,-0.026535034,-0.09194946,0.04888916,10.60530034,76.13612386,11.62
19-02-2019 6.28,1.55E+12,0.7619629,6.45874,7.5970764,-0.10217285,-0.17930603,0.09576416,10.60530034,76.13612386,11.62
19-02-2019 6.28,1.55E+12,0.019760132,6.9615173,10.020004,0.022460938,0.012451172,-0.018218994,10.60530034,76.13612386,11.62
19-02-2019 6.28,1.55E+12,0.058059692,4.9767303,8.9857025,0.12046814,-0.041885376,-0.013961792,10.60530034,76.13612386,11.62
19-02-2019 6.28,1.55E+12,0.90560913,8.589569,3.5772095,0.30049133,-0.004592896,-0.034210205,10.60530034,76.13612386,11.62
19-02-2019 6.28,1.55E+12,1.0109558,3.7556763,13.455688,-0.19697571,0.018844604,-0.04486084,10.60530034,76.13612386,11.62
19-02-2019 6.28,1.55E+12,2.0452423,8.2352295,7.003311,0.27279663,0.010314941,-0.01928711,10.60530034,76.13612386,11.62
19-02-2019 6.28,1.55E+12,0.5105591,5.6135864,7.951416,-0.14372253,0.122161865,-0.07362366,10.60530034,76.13612386,11.62
19-02-2019 6.28,1.55E+12,1.0564423,6.2671967,5.272293,0.076797485,0.022033691,-0.08106995,10.60530034,76.13612386,11.62
19-02-2019 6.28,1.55E+12,-0.38964844,7.090805,7.3839874,0.013946533,0.04333496,-0.08639526,10.60530034,76.13612386,11.62
19-02-2019 6.28,1.55E+12,0.675766,4.457184,12.3615265,-0.19911194,-0.14201355,0.006271362,10.60530034,76.13612386,11.62
19-02-2019 6.28,1.55E+12,0.16101074,9.623871,0.6778259,0.133255,-0.057861328,0.017990112,10.60530034,76.13612386,11.62
19-02-2019 6.28,1.55E+12,-2.1781158,5.7404785,7.23555,-0.2992401,0.016708374,-0.09811401,10.60530034,76.13612386,11.62
19-02-2019 6.28,1.55E+12,2.138626,8.625488,3.835785,-0.11175537,-0.3018036,0.024383545,10.60530034,76.13612386,11.62
19-02-2019 6.28,1.55E+12,-2.103897,9.14743,1.4822845,0.007553101,0.21377563,-0.07255554,10.60530034,76.13612386,11.62
19-02-2019 6.28,1.55E+12,4.5088806,3.4372559,15.361465,-0.48460388,-0.2975464,0.033966064,10.60530034,76.13612386,11.62
19-02-2019 6.28,1.55E+12,-0.09037781,9.772308,6.4239044,0.44856262,0.32989502,-0.07469177,10.60530034,76.13612386,11.62
19-02-2019 6.28,1.55E+12,2.5432434,3.9208832,9.684814,-0.10643005,0.053985596,-0.040603638,10.60530034,76.13612386,11.62
19-02-2019 6.28,1.55E+12,1.5951385,8.505783,3.452713,0.31114197,0.11683655,-0.048049927,10.60530034,76.13612386,11.62
19-02-2019 6.28,1.55E+12,0.7116852,3.7317352,13.230621,-0.1415863,0.16584778,-0.060836792,10.60530034,76.13612386,11.62
19-02-2019 6.28,1.55E+12,3.89357,6.865753,9.557922,0.21847534,-0.10580444,0.021194458,10.60530034,76.13612386,11.62
19-02-2019 6.28,1.55E+12,-0.39204407,4.687027,9.533981,0.10661316,0.25746155,-0.11515808,10.60530034,76.13612386,11.62
19-02-2019 6.28,1.55E+12,3.3333282,5.23291,7.757477,0.133255,-0.1579895,0.012664795,10.60530034,76.13612386,11.62
19-02-2019 6.28,1.55E+12,-2.5995026,6.896881,6.4909515,0.25575256,0.24253845,-0.09173584,10.60530034,76.13612386,11.62
19-02-2019 6.28,1.55E+12,2.9478607,4.031021,12.069443,-0.20230103,-0.38490295,0.08509827,10.60530034,76.13612386,11.62
19-02-2019 6.28,1.55E+12,-1.5173187,6.7412567,8.111816,0.18650818,0.07316589,-0.010772705,10.60530034,76.13612386,11.62
19-02-2019 6.28,1.55E+12,1.9446869,5.1347504,9.354416,-0.005233765,-0.22511292,0.012664795,10.60530034,76.13612386,11.62
19-02-2019 6.28,1.55E+12,-0.7344208,8.761963,0.9962616,0.20675659,0.067840576,-0.05230713,10.60530034,76.13612386,11.62
19-02-2019 6.28,1.55E+12,0.60873413,6.3940887,7.0559845,-0.28007507,-0.18035889,0.016921997,10.60530034,76.13612386,11.62
19-02-2019 6.28,1.55E+12,1.3940277,7.0572815,8.439835,-0.18206787,-0.10366821,0.047821045,10.60530034,76.13612386,11.62
19-02-2019 6.28,1.55E+12,0.7116852,5.6494904,12.17717,-0.15756226,-0.065322876,0.030776978,10.60530034,76.13612386,11.62
19-02-2019 6.28,1.55E+12,0.37649536,7.0955963,5.499756,0.17585754,-0.045074463,0.00201416,10.60530034,76.13612386,11.62
19-02-2019 6.28,1.55E+12,-0.008972168,6.604782,4.6569824,0.043762207,-0.056793213,0.008407593,10.60530034,76.13612386,11.62
19-02-2019 6.28,1.55E+12,0.2855072,3.908905,13.012756,0.020324707,-0.16119385,0.042495728,10.60530034,76.13612386,11.62
19-02-2019 6.28,1.55E+12,1.9830017,6.3366394,9.550735,0.2536316,-0.12496948,0.08937073,10.60530034,76.13612386,11.62
19-02-2019 6.28,1.55E+12,-0.97862244,4.667877,8.949799,0.2664032,0.019897461,-0.005447388,10.60530034,76.13612386,11.62
19-02-2019 6.28,1.55E+12,0.56562805,3.5473938,12.936142,-0.020141602,-0.23788452,0.0680542,10.60530034,76.13612386,11.62
19-02-2019 6.28,1.55E+12,-0.5644226,7.9814453,1.3960876,0.39317322,-0.14733887,0.0914917,10.60530034,76.13612386,11.62
19-02-2019 6.28,1.55E+12,-2.8173676,6.3892975,4.3170166,-0.14479065,-0.11112976,0.05633545,10.60530034,76.13612386,11.62
19-02-2019 6.28,1.55E+12,3.1130676,5.505844,11.99762,-0.25663757,-0.579834,0.19589233,10.60530034,76.13612386,11.62
19-02-2019 6.28,1.55E+12,-1.9123688,9.961456,-1.120224,0.49864197,0.34375,-0.012893677,10.60530034,76.13612386,11.62
19-02-2019 6.28,1.55E+12,2.004547,-2.246582,19.659058,-0.30351257,-0.23043823,0.063797,10.60530034,76.13612386,11.62
19-02-2019 6.28,1.55E+12,4.250305,10.782669,4.381653,1.0163574,-0.016311646,0.08937073,10.60530034,76.13612386,11.62
19-02-2019 6.28,1.55E+12,-1.735199,-2.0215302,15.964798,0.01499939,0.38102722,-0.024612427,10.60530034,76.13612386,11.62
19-02-2019 6.28,1.55E+12,6.989273,4.327896,15.397385,0.3367157,-0.5585327,0.19589233,10.60530034,76.13612386,11.62
19-02-2019 6.28,1.55E+12,-4.794983,5.077286,5.734375,0.44644165,0.5205841,-0.016098022,10.60530034,76.13612386,11.62
19-02-2019 6.28,1.55E+12,3.7954102,6.5832367,9.43103,-0.035064697,-0.624588,0.19482422,10.60530034,76.13612386,11.62
19-02-2019 6.28,1.55E+12,-2.755127,5.299942,5.7559357,-0.030807495,0.077423096,0.05633545,10.60530034,76.13612386,11.62
19-02-2019 6.28,1.55E+12,2.6845093,7.514572,5.499756,-0.007369995,-0.37104797,0.20974731,10.60530034,76.13612386,11.62
19-02-2019 6.28,1.55E+12,-0.4519043,5.635132,9.057526,-0.25450134,-0.044006348,0.08616638,10.60530034,76.13612386,11.62
19-02-2019 6.28,1.55E+12,0.4004364,7.730057,5.9618225,0.08956909,-0.10473633,0.11174011,10.60530034,76.13612386,11.62
19-02-2019 6.28,1.55E+12,0.57281494,5.848221,8.344055,-0.13839722,-0.11218262,0.11174011,10.60530034,76.13612386,11.62
19-02-2019 6.28,1.55E+12,-0.10952759,6.9184265,7.149353,0.0309906,-0.044006348,0.11280823,10.60530034,76.13612386,11.62
19-02-2019 6.28,1.55E+12,1.8345642,7.3326263,6.275467,-0.13412476,-0.16438293,0.14050293,10.60530034,76.13612386,11.62
19-02-2019 6.28,1.55E+12,0.7475891,8.596756,-0.28463745,0.14709473,0.102996826,0.01159668,10.60530034,76.13612386,11.62
19-02-2019 6.28,1.55E+12,1.9015961,4.813919,12.102951,-0.438797,-0.049331665,0.05101013,10.60530034,76.13612386,11.62
19-02-2019 6.28,1.55E+12,1.0348969,8.965469,7.465393,0.23019409,0.089141846,0.063797,10.60530034,76.13612386,11.62
19-02-2019 6.28,1.55E+12,2.600708,5.852997,3.7280426,-0.15223694,0.061447144,0.07444763,10.60530034,76.13612386,11.62
19-02-2019 6.28,1.55E+12,0.37409973,6.623932,7.4749603,-0.1096344,0.06037903,-0.007568359,10.60530034,76.13612386,11.62
19-02-2019 6.28,1.55E+12,2.8353424,7.141083,5.2411804,-0.2672882,-0.034423828,0.07444763,10.60530034,76.13612386,11.62
19-02-2019 6.28,1.55E+12,-0.957077,10.502548,2.389679,0.09703064,0.23614502,-0.01928711,10.60530034,76.13612386,11.62
19-02-2019 6.28,1.55E+12,4.26947,5.106018,9.335266,-0.57196045,-0.119644165,0.054214478,10.60530034,76.13612386,11.62
19-02-2019 6.28,1.55E+12,1.3772736,9.887238,3.3234253,0.22166443,0.296875,0.008407593,10.60530034,76.13612386,11.62
19-02-2019 6.28,1.55E+12,3.5919037,2.738144,13.419769,-0.38552856,0.16159058,-0.02355957,10.60530034,76.13612386,11.62
19-02-2019 6.28,1.55E+12,2.8568878,10.3732605,5.6481934,0.49224854,0.19779968,0.044631958,10.60530034,76.13612386,11.62
19-02-2019 6.28,1.55E+12,1.3844452,2.841095,15.375824,-0.20550537,0.30859375,-0.029937744,10.60530034,76.13612386,11.62
19-02-2019 6.28,1.55E+12,4.9158936,9.190521,4.094345,0.550827,-3.36E-04,0.09788513,10.60530034,76.13612386,11.62
19-02-2019 6.28,1.55E+12,-0.75357056,4.888138,11.564255,-0.030807495,0.45240784,-0.05870056,10.60530034,76.13612386,11.62
19-02-2019 6.28,1.55E+12,5.411499,7.5864105,11.1285095,0.20036316,-0.22084045,0.07444763,10.60530034,76.13612386,11.62
19-02-2019 6.28,1.55E+12,-0.90200806,8.311844,2.7224731,0.08531189,0.46624756,-0.09173584,10.60530034,76.13612386,11.62
19-02-2019 6.28,1.55E+12,2.4450836,8.647034,2.9403534,-0.0435791,-0.09941101,0.012664795,10.60530034,76.13612386,11.62
19-02-2019 6.28,1.55E+12,1.8632965,8.287903,5.8109894,-0.39831543,0.09446716,-0.037399292,10.60530034,76.13612386,11.62
19-02-2019 6.28,1.55E+12,-0.004180908,9.10672,2.6362762,-0.013763428,0.18395996,-0.09173584,10.60530034,76.13612386,11.62
19-02-2019 6.28,1.55E+12,3.668518,5.244873,10.371948,-0.5826111,-0.032287598,-0.008636475,10.60530034,76.13612386,11.62
19-02-2019 6.28,1.55E+12,0.9798279,12.693237,-3.3875275,0.578537,0.42469788,-0.13220215,10.60530034,76.13612386,11.62
19-02-2019 6.28,1.55E+12,2.2822723,0.42056274,16.52983,-0.55596924,0.1946106,-0.11836243,10.60530034,76.13612386,11.62
19-02-2019 6.28,1.55E+12,4.973358,7.1793976,11.753403,0.4581604,0.053985596,-0.003311157,10.60530034,76.13612386,11.62
19-02-2019 6.28,1.55E+12,-0.7918854,4.596054,6.457428,0.19610596,0.5557251,-0.10983276,10.60530034,76.13612386,11.62
19-02-2019 6.29,1.55E+12,4.1641235,5.548935,10.326462,0.05229187,-0.17930603,-0.018218994,10.60530034,76.13612386,11.62
19-02-2019 6.29,1.55E+12,-2.3672638,8.247208,2.5070038,0.30262756,0.4076538,-0.13220215,10.60530034,76.13612386,11.62
19-02-2019 6.29,1.55E+12,2.6677399,3.2864227,16.88179,-0.5389252,-0.33270264,0.053146362,10.60530034,76.13612386,11.62
19-02-2019 6.29,1.55E+12,-0.933136,10.088348,1.3218689,0.21847534,0.14559937,-0.060836792,10.60530034,76.13612386,11.62
19-02-2019 6.29,1.55E+12,-0.4638672,7.885681,2.990631,-0.20657349,-0.004592896,-0.08213806,10.60530034,76.13612386,11.62
19-02-2019 6.29,1.55E+12,0.5392914,8.728439,6.474182,-0.40151978,-0.1494751,-0.07255554,10.60530034,76.13612386,11.62
19-02-2019 6.29,1.55E+12,-2.1996765,8.285507,6.3760223,-0.1415863,0.15838623,-0.102386475,10.60530034,76.13612386,11.62
19-02-2019 6.29,1.55E+12,4.7650604,9.801041,5.054428,-0.41749573,-0.2474823,0.038238525,10.60530034,76.13612386,11.62
19-02-2019 6.29,1.55E+12,-2.779068,9.097153,1.5756531,-0.08831787,0.44706726,-0.22062683,10.60530034,76.13612386,11.62
19-02-2019 6.29,1.55E+12,5.004486,9.549652,6.148575,-0.5378723,-0.19102478,-0.051254272,10.60530034,76.13612386,11.62
19-02-2019 6.29,1.55E+12,-1.7328033,9.1953125,2.7320557,-0.085128784,0.42897034,-0.14286804,10.60530034,76.13612386,11.62
19-02-2019 6.29,1.55E+12,6.352417,8.742798,7.034439,-0.4909973,-0.121780396,-0.02355957,10.60530034,76.13612386,11.62
19-02-2019 6.29,1.55E+12,0.21128845,9.372482,1.1877899,0.024597168,0.4183197,-0.1439209,10.60530034,76.13612386,11.62
19-02-2019 6.29,1.55E+12,5.3588257,5.90567,10.484482,-0.5698242,0.016708374,-0.059768677,10.60530034,76.13612386,11.62
19-02-2019 6.29,1.55E+12,1.6142883,10.287064,1.1159668,0.3399048,0.3469391,-0.07041931,10.60530034,76.13612386,11.62
19-02-2019 6.29,1.55E+12,2.5240936,4.244095,12.615311,-0.35250854,0.20739746,-0.08534241,10.60530034,76.13612386,11.62
19-02-2019 6.29,1.55E+12,5.3540344,6.7125244,10.216324,0.19610596,-0.063186646,0.0914917,10.60530034,76.13612386,11.62
19-02-2019 6.29,1.55E+12,-0.3728943,5.1395264,7.331314,0.17799377,0.46411133,-0.06616211,10.60530034,76.13612386,11.62
19-02-2019 6.29,1.55E+12,5.174469,5.9894714,9.071899,0.1055603,-0.26771545,0.07977295,10.60530034,76.13612386,11.62
19-02-2019 6.29,1.55E+12,-2.7934265,5.553726,7.3456726,0.22698975,0.3980713,-0.09492493,10.60530034,76.13612386,11.62
19-02-2019 6.29,1.55E+12,4.4777527,5.07489,12.995987,-0.085128784,-0.44561768,0.16073608,10.60530034,76.13612386,11.62
19-02-2019 6.29,1.55E+12,-3.3656464,7.2392426,3.0528717,0.22592163,0.19354248,-0.013961792,10.60530034,76.13612386,11.62
19-02-2019 6.29,1.55E+12,1.4083862,4.4164886,12.3064575,-0.30351257,-0.41259766,0.07977295,10.60530034,76.13612386,11.62
19-02-2019 6.29,1.55E+12,-0.95228577,8.029327,3.3401794,0.13858032,-0.09194946,0.02331543,10.60530034,76.13612386,11.62
19-02-2019 6.29,1.55E+12,-1.2443848,7.461914,2.7823334,-0.08938599,-0.09301758,0.005203247,10.60530034,76.13612386,11.62
19-02-2019 6.29,1.55E+12,2.296646,5.043762,13.328781,-0.3184204,-0.27624512,0.082977295,10.60530034,76.13612386,11.62
19-02-2019 6.29,1.55E+12,0.2926941,8.613525,4.829376,0.29943848,0.11578369,-0.028884888,10.60530034,76.13612386,11.62
19-02-2019 6.29,1.55E+12,1.532898,3.7053986,10.958527,-0.1607666,-0.033355713,0.019058228,10.60530034,76.13612386,11.62
19-02-2019 6.29,1.55E+12,1.482605,7.5504913,6.09111,0.27493286,-0.023773193,0.026519775,10.60530034,76.13612386,11.62
19-02-2019 6.29,1.55E+12,0.23522949,4.703781,9.663269,0.018203735,0.04866028,0.006271362,10.60530034,76.13612386,11.62
19-02-2019 6.29,1.55E+12,3.7092133,4.9456024,9.502853,0.046966553,-0.22616577,0.14582825,10.60530034,76.13612386,11.62
19-02-2019 6.29,1.55E+12,-0.9738312,4.035797,11.784531,0.22912598,0.15519714,0.024383545,10.60530034,76.13612386,11.62
19-02-2019 6.29,1.55E+12,3.3788147,5.1754456,11.233856,0.19290161,-0.29222107,0.15966797,10.60530034,76.13612386,11.62
19-02-2019 6.29,1.55E+12,-4.261078,5.4388123,3.9339447,0.45283508,0.17224121,0.024383545,10.60530034,76.13612386,11.62
19-02-2019 6.29,1.55E+12,3.2782593,3.1379852,12.141266,-0.27474976,-0.6331024,0.28964233,10.60530034,76.13612386,11.62
19-02-2019 6.29,1.55E+12,-4.170105,7.6701965,2.8302155,0.19715881,-0.06744385,0.17352295,10.60530034,76.13612386,11.62
19-02-2019 6.29,1.55E+12,-1.4311371,4.311142,10.089432,-0.3184204,-0.37850952,0.16287231,10.60530034,76.13612386,11.62
19-02-2019 6.29,1.55E+12,0.20649719,7.8713226,4.829376,-0.0158844,-0.4317627,0.21932983,10.60530034,76.13612386,11.62
19-02-2019 6.29,1.55E+12,-3.7032318,7.303894,4.733597,-0.038253784,0.08062744,0.082977295,10.60530034,76.13612386,11.62
19-02-2019 6.29,1.55E+12,4.554367,5.371765,7.755081,-0.37594604,-0.56918335,0.24809265,10.60530034,76.13612386,11.62
19-02-2019 6.29,1.55E+12,-3.9713745,12.540009,-2.9326324,0.46348572,0.41192627,-0.0693512,10.60530034,76.13612386,11.62
19-02-2019 6.29,1.55E+12,5.363617,2.6567383,15.045425,-0.8467865,-0.43815613,0.15434265,10.60530034,76.13612386,11.62
19-02-2019 6.29,1.55E+12,-0.6003418,12.331711,-0.36843872,0.73298645,0.4449463,-0.04698181,10.60530034,76.13612386,11.62
19-02-2019 6.29,1.55E+12,5.260666,1.9528503,12.380692,-0.4196167,0.022033691,0.057403564,10.60530034,76.13612386,11.62
