TIME,Mills,Ax,Ay,Az,Gx,Gy,Gz,Lat,Lon,Speed,Class
22-02-2019 4.47,1550000000000.0,-1.0312958,4.612808,11.607361000000001,0.17044067,-0.17677307,0.032409667999999996,10.60212239,76.11342096,0.0,0
22-02-2019 4.47,1550000000000.0,-0.1765747,4.217758,8.406311,-0.001068115,-0.10006714,0.005767822,10.60212239,76.11342096,0.0,0
22-02-2019 4.47,1550000000000.0,1.3533325,8.259171,7.7718506,0.26205444,-0.07237244,-0.01979065,10.60212239,76.11342096,0.0,0
22-02-2019 4.47,1550000000000.0,-0.76794434,4.0932617,10.69278,-0.0063934330000000004,0.025634766,-0.11033630000000001,10.60212239,76.11342096,0.0,0
22-02-2019 4.47,1550000000000.0,1.2838898,3.837082,7.6449585,0.080963135,-0.051071167,-0.0315094,10.60212239,76.11342096,0.0,0
22-02-2019 4.47,1550000000000.0,0.53689575,5.924835,9.52919,0.22157288,0.07144165,-0.037902832000000004,10.60212239,76.11342096,0.0,0
22-02-2019 4.47,1550000000000.0,1.0420837,3.272049,9.227524,-0.004257202,-0.025497437,-0.07305908,10.60212239,76.11342096,0.0,0
22-02-2019 4.47,1550000000000.0,0.34776306,5.855392500000001,8.564331,0.3568573,0.12257385,-0.04748535,10.60212239,76.11342096,0.0,0
22-02-2019 4.47,1550000000000.0,1.8201903999999998,2.7692718999999997,6.5507965,-0.09161377,-0.02230835,-0.005950928,10.60212239,76.11342096,0.0,0
22-02-2019 4.47,1550000000000.0,0.96546936,6.925598,9.177246,0.23861694,0.046936035,-0.0315094,10.60212239,76.11342096,0.0,0
22-02-2019 4.47,1550000000000.0,0.07003784,2.3694458,11.791718,-0.24394226,-0.004196167,-0.062408447,10.60212239,76.11342096,0.0,0
22-02-2019 4.47,1550000000000.0,3.2639007999999996,8.539291,3.4000397000000007,0.116119385,0.08955383,0.010040283,10.60212239,76.11342096,0.0,0
22-02-2019 4.47,1550000000000.0,-0.53330994,7.588806,4.475036599999999,-0.1725769,0.21098328,-0.08689880000000001,10.60212239,76.11342096,0.0,0
22-02-2019 4.47,1550000000000.0,3.7259827000000003,6.590423599999999,11.50441,-0.36112976,-0.058517455999999995,-0.058151245,10.60212239,76.11342096,0.0,0
22-02-2019 4.47,1550000000000.0,-1.0456696,7.9359589999999995,3.7783203000000003,0.12144469999999999,0.34840393,-0.06666565,10.60212239,76.11342096,0.0,0
22-02-2019 4.47,1550000000000.0,7.9278107,11.069962,3.962677,-0.4079895,-0.056396484000000004,-0.016601562,10.60212239,76.11342096,0.0,0
22-02-2019 4.47,1550000000000.0,-1.9602509,12.927872,-5.9253845,0.055389404,0.6157836999999999,-0.24882507,10.60212239,76.11342096,0.0,0
22-02-2019 4.47,1550000000000.0,6.9102630000000005,0.84672546,18.440414,-0.98217773,-0.23962402,-0.17318726,10.60212239,76.11342096,0.0,0
22-02-2019 4.47,1550000000000.0,-1.6154785,6.520981,2.868515,0.511322,0.60513306,-0.15934753,10.60212239,76.11342096,0.0,0
22-02-2019 4.47,1550000000000.0,7.6141663,10.837738,9.002472000000001,-0.027694702,0.007522583,-0.015533446999999999,10.60212239,76.11342096,0.0,0
22-02-2019 4.47,1550000000000.0,-2.8197632,6.1881866,9.54834,-0.3483429,0.49647522,-0.2743988,10.60212239,76.11342096,0.0,0
22-02-2019 4.47,1550000000000.0,6.0699005,8.92955,6.8117676,-0.23435974,-0.10220337,-0.077316284,10.60212239,76.11342096,0.0,0
22-02-2019 4.47,1550000000000.0,-2.2882537999999997,5.5297849999999995,10.132522999999999,-0.31744385,0.39634705,-0.10394287,10.60212239,76.11342096,0.0,0
22-02-2019 4.47,1550000000000.0,6.6277466,12.925476,-2.7075806,-0.06498718,-0.15440369,-0.015533446999999999,10.60212239,76.11342096,0.0,0
22-02-2019 4.47,1550000000000.0,-4.419098,9.128264999999999,0.9004822,-0.48788452,0.44854736,-0.16786194,10.60212239,76.11342096,0.0,0
22-02-2019 4.47,1550000000000.0,5.5575410000000005,3.1116486,15.028671,-0.94914246,-0.44947815,-0.0006259999999999999,10.60212239,76.11342096,0.0,0
22-02-2019 4.47,1550000000000.0,-2.9346924,13.394745,-3.1720428,0.8468933000000001,0.5561371,-0.008071899,10.60212239,76.11342096,0.0,0
22-02-2019 4.47,1550000000000.0,4.0372314,1.7565308000000002,15.107681,-0.37390137,-0.32377625,0.082473755,10.60212239,76.11342096,0.0,0
22-02-2019 4.47,1550000000000.0,-1.7280121,8.563232000000001,5.10231,0.6093291999999999,0.30899048,-0.07519531,10.60212239,76.11342096,0.0,0
22-02-2019 4.47,1550000000000.0,2.1793213,2.1635437,13.551453,0.123565674,-0.1437378,0.016418457,10.60212239,76.11342096,0.0,0
22-02-2019 4.47,1550000000000.0,-0.27952576,4.3255004999999995,7.6377716,0.41651917,0.14813232,-0.032577515,10.60212239,76.11342096,0.0,0
22-02-2019 4.47,1550000000000.0,-0.8996124,6.731674000000001,9.70636,0.5539398,-0.011657715,-0.02406311,10.60212239,76.11342096,0.0,0
22-02-2019 4.47,1550000000000.0,1.0540466,3.3462677000000003,13.747772,-0.15446472,-0.12776184,-0.02192688,10.60212239,76.11342096,0.0,0
22-02-2019 4.47,1550000000000.0,-1.5652008,6.41803,10.367157,0.39733887,0.10765076,-0.003814697,10.60212239,76.11342096,0.0,0
22-02-2019 4.47,1550000000000.0,2.0787659,3.0350342,16.611237,-0.123565674,-0.21725464,-0.01020813,10.60212239,76.11342096,0.0,0
22-02-2019 4.47,1550000000000.0,-2.482193,7.3541718,3.5149536,0.6551361,0.21525574,-0.067733765,10.60212239,76.11342096,0.0,0
22-02-2019 4.47,1550000000000.0,4.0539856,2.62323,10.910645,-0.29933167,-0.35360718,-0.005950928,10.60212239,76.11342096,0.0,0
22-02-2019 4.47,1550000000000.0,-3.8205413999999998,5.5465393,5.9450684,0.2237091,0.26106262,-0.13165283,10.60212239,76.11342096,0.0,0
22-02-2019 4.47,1550000000000.0,5.418686,7.8641357,4.302643,0.14060974,-0.38237,0.039855957000000004,10.60212239,76.11342096,0.0,0
22-02-2019 4.47,1550000000000.0,-1.7184296000000001,5.5178223,8.707977,-0.14700317,0.33242798,-0.16999817,10.60212239,76.11342096,0.0,0
22-02-2019 4.47,1550000000000.0,3.759491,7.591186500000001,9.533980999999999,-0.067108154,-0.21405029999999997,0.006835938000000001,10.60212239,76.11342096,0.0,0
22-02-2019 4.47,1550000000000.0,0.3070526,5.6207733,8.358429,-0.17576599,0.33668518,-0.10928345,10.60212239,76.11342096,0.0,0
22-02-2019 4.47,1550000000000.0,1.8776549999999999,5.4124756,9.17485,-0.052200317,-0.03614807,-0.061340332000000004,10.60212239,76.11342096,0.0,0
22-02-2019 4.47,1550000000000.0,1.8321686000000001,12.250305,-0.65335083,0.09907532,0.13854979999999997,-0.08052063,10.60212239,76.11342096,0.0,0
22-02-2019 4.47,1550000000000.0,-0.047286987,3.8227233999999997,9.976913,-0.651947,0.039474487,-0.11566162,10.60212239,76.11342096,0.0,0
22-02-2019 4.47,1550000000000.0,2.5983124,12.221573,-1.1848602,0.014907837,-0.03189087,-0.041107178,10.60212239,76.11342096,0.0,0
22-02-2019 4.47,1550000000000.0,-1.2180481,7.351775999999999,3.2420197,-0.39840698,0.14173889,-0.14549255,10.60212239,76.11342096,0.0,0
22-02-2019 4.47,1550000000000.0,2.387619,7.2224884000000005,10.5108185,-0.2982788,-0.21192932,-0.07624817,10.60212239,76.11342096,0.0,0
22-02-2019 4.47,1550000000000.0,-1.8572998,5.1131897,3.6514282,0.0234375,0.24720764,-0.10394287,10.60212239,76.11342096,0.0,0
22-02-2019 4.47,1550000000000.0,0.15861511,4.909683,8.968948,0.1725769,-0.1671753,-0.05494690000000001,10.60212239,76.11342096,0.0,0
22-02-2019 4.47,1550000000000.0,-1.5269012,1.0310822,16.467589999999998,-0.26737976,-0.013778687,-0.09436035,10.60212239,76.11342096,0.0,0
22-02-2019 4.47,1550000000000.0,-2.8413086,6.5832367,5.6817017,0.60614014,-0.070236206,0.00151062,10.60212239,76.11342096,0.0,0
22-02-2019 4.47,1550000000000.0,0.6661835,1.2633208999999999,17.21936,-0.32383728,-0.30673218,-0.09861755,10.60212239,76.11342096,0.0,0
22-02-2019 4.47,1550000000000.0,-4.2323455999999995,6.3845215,3.4191895,0.6402283000000001,0.027755737000000003,-0.07838439999999999,10.60212239,76.11342096,0.0,0
22-02-2019 4.47,1550000000000.0,1.5568389999999999,-0.010391235,12.452515,-0.32809448,-0.37809753,0.070755005,10.60212239,76.11342096,0.0,0
22-02-2019 4.47,1550000000000.0,-4.522049,10.861678999999999,-0.12663269,0.51878357,0.053329468,-0.013397217,10.60212239,76.11342096,0.0,0
22-02-2019 4.47,1550000000000.0,1.4131775,6.090027,8.643341,-0.44207764,-0.34295654,0.07182312,10.60212239,76.11342096,0.0,0
22-02-2019 4.47,1550000000000.0,-3.2507172000000004,6.6861877000000005,7.036819500000001,-0.15126038,-0.03189087,-0.08370972,10.60212239,76.11342096,0.0,0
22-02-2019 4.47,1550000000000.0,-0.46148682,6.046936,9.907471000000001,-0.12677002,-0.25559998,-0.17106628,10.60212239,76.11342096,0.0,0
22-02-2019 4.47,1550000000000.0,-2.786255,7.670196499999999,5.4327087,-0.06817627,-0.12243652,-0.15509033,10.60212239,76.11342096,0.0,0
22-02-2019 4.47,1550000000000.0,-0.31063843,4.390152,9.940994,-0.3259735,-0.25346375,-0.11672974,10.60212239,76.11342096,0.0,0
22-02-2019 4.47,1550000000000.0,-2.8916016,10.935898,2.1119537,-0.039413452,-0.16931152,-0.14337158,10.60212239,76.11342096,0.0,0
22-02-2019 4.47,1550000000000.0,-1.8620911,3.9927062999999996,13.101334,-0.5784302,-0.28222656,-0.027252197000000002,10.60212239,76.11342096,0.0,0
22-02-2019 4.47,1550000000000.0,-1.3377533000000001,11.661331,-1.6086426,0.08628845,-0.32270813,0.016418457,10.60212239,76.11342096,0.0,0
22-02-2019 4.47,1550000000000.0,-3.2052307,5.395706,3.9530945,-0.5272979999999999,-0.15119934,-0.08370972,10.60212239,76.11342096,0.0,0
22-02-2019 4.47,1550000000000.0,0.6063385,10.725204,5.746353,-0.5049286000000001,-0.497406,0.029205322000000002,10.60212239,76.11342096,0.0,0
22-02-2019 4.47,1550000000000.0,-4.4454346,6.204956,6.653747599999999,-0.255661,0.07356262,-0.06985474,10.60212239,76.11342096,0.0,0
22-02-2019 4.47,1550000000000.0,-0.3537445,13.330093,-0.3253479,0.008529663,-0.5378876,0.07394409,10.60212239,76.11342096,0.0,0
22-02-2019 4.47,1550000000000.0,-3.08313,5.8937073,8.643341,-0.56884766,-0.1362915,-0.0357666,10.60212239,76.11342096,0.0,0
22-02-2019 4.47,1550000000000.0,-1.1174927,11.508102000000001,-3.4186553999999996,-0.15872192,-0.38981628,0.07608032,10.60212239,76.11342096,0.0,0
22-02-2019 4.47,1550000000000.0,-3.2243958,5.5681,9.708755499999999,-0.69454956,-0.1831665,-0.0006259999999999999,10.60212239,76.11342096,0.0,0
22-02-2019 4.47,1550000000000.0,-1.5316925,12.621414,-0.45463562,-0.19174194,-0.48675537,0.07608032,10.60212239,76.11342096,0.0,0
22-02-2019 4.47,1550000000000.0,-5.158905,3.6120300000000003,9.253860000000001,-0.7265166999999999,-0.12136841,-0.025115967000000003,10.60212239,76.11342096,0.0,0
22-02-2019 4.47,1550000000000.0,1.0779877,14.208770999999999,-2.4897002999999995,-0.13528442,-0.6273804000000001,0.13360596,10.60212239,76.11342096,0.0,0
22-02-2019 4.47,1550000000000.0,-7.074264500000001,4.201004,2.0664673,-0.7350310999999999,0.15666199,-0.11566162,10.60212239,76.11342096,0.0,0
22-02-2019 4.47,1550000000000.0,5.430649,15.341232000000002,-2.6309662,-0.6551361,-0.8180542,0.15597534,10.60212239,76.11342096,0.0,0
22-02-2019 4.47,1550000000000.0,-8.5251465,13.485717999999999,-7.2565612999999995,-0.19067383,0.55081177,-0.23071289,10.60212239,76.11342096,0.0,0
22-02-2019 4.47,1550000000000.0,8.775345,10.366074000000001,6.792617999999999,-1.1675262,-0.95121765,0.07821655,10.60212239,76.11342096,0.0,0
22-02-2019 4.47,1550000000000.0,-10.591353999999999,9.250380999999999,-1.4218903,-0.15553284,0.85653687,-0.24882507,10.60212239,76.11342096,0.0,0
22-02-2019 4.47,1550000000000.0,7.453750599999999,7.3014984,5.7056427,-0.78297424,-0.9671936,0.12614441,10.60212239,76.11342096,0.0,0
22-02-2019 4.47,1550000000000.0,-8.824432,9.398819,-0.31576538,0.090545654,0.70207214,-0.23498535,10.60212239,76.11342096,0.0,0
22-02-2019 4.47,1550000000000.0,5.3947449999999995,4.2656403,12.696716,-0.49853516,-0.8042145,0.10697937,10.60212239,76.11342096,0.0,0
22-02-2019 4.47,1550000000000.0,-5.2211456,9.224045,-4.0219879999999995,0.5219879,0.53163147,-0.079452515,10.60212239,76.11342096,0.0,0
22-02-2019 4.47,1550000000000.0,0.8601226999999999,-0.015182495,19.527374,-0.3952179,-0.5613251,0.07394409,10.60212239,76.11342096,0.0,0
22-02-2019 4.47,1550000000000.0,-2.4558562999999998,8.1514435,4.4630585,0.654068,0.23548889,-0.056015015,10.60212239,76.11342096,0.0,0
22-02-2019 4.47,1550000000000.0,1.4538878999999998,0.082977295,19.759613,-0.1257019,-0.2342987,-0.046432495,10.60212239,76.11342096,0.0,0
22-02-2019 4.47,1550000000000.0,0.14186096,10.370865,3.4072112999999997,0.90974426,0.15133667,-0.09010315,10.60212239,76.11342096,0.0,0
22-02-2019 4.47,1550000000000.0,-0.08558655,-4.0518036,20.434784,0.022369385,-0.04360962,-0.11566162,10.60212239,76.11342096,0.0,0
22-02-2019 4.47,1550000000000.0,3.0412445,4.5194397,11.162033000000001,0.9246521000000001,-0.09580994,-0.038970947,10.60212239,76.11342096,0.0,0
22-02-2019 4.47,1550000000000.0,-1.0336914000000001,3.9352417,11.973663,0.89907837,0.26318359999999996,-0.079452515,10.60212239,76.11342096,0.0,0
22-02-2019 4.47,1550000000000.0,4.4298706,0.83236694,13.707076999999998,0.15232849,-0.32484436,0.020690918,10.60212239,76.11342096,0.0,0
22-02-2019 4.47,1550000000000.0,-5.0846862999999995,6.944763000000001,7.3097687,1.0791168,0.37609863,-0.05494690000000001,10.60212239,76.11342096,0.0,0
22-02-2019 4.47,1550000000000.0,6.031601,-3.314392,25.36444,-0.6316986,-0.7072754,0.15171814,10.60212239,76.11342096,0.0,0
22-02-2019 4.47,1550000000000.0,-7.323257400000001,10.334946,2.5357208,1.2271881000000002,0.46984863,0.02281189,10.60212239,76.11342096,0.0,0
22-02-2019 4.47,1550000000000.0,6.359604,-0.46768188,20.592789,-0.74993896,-0.8830414000000001,0.18687439,10.60212239,76.11342096,0.0,0
22-02-2019 4.47,1550000000000.0,-8.8172455,6.676605,2.006607,0.74461365,0.39421082,-0.059204099999999996,10.60212239,76.11342096,0.0,0
22-02-2019 4.47,1550000000000.0,6.4601593,-2.5290985,20.779541000000002,-0.5155792,-0.9586792,0.20497131,10.60212239,76.11342096,0.0,0
22-02-2019 4.47,1550000000000.0,-10.8259735,13.526413,-4.4864654999999996,1.3283844,0.33456420000000003,-0.007003784,10.60212239,76.11342096,0.0,0
22-02-2019 4.47,1550000000000.0,4.44664,-3.8076019999999997,22.105926999999998,-1.2815094,-1.1014252,0.19325256,10.60212239,76.11342096,0.0,0
22-02-2019 4.47,1550000000000.0,-8.288132000000001,13.224747,-9.310775999999999,0.8170624,0.1577301,0.07608032,10.60222701,76.11298803,8.16,0
22-02-2019 4.47,1550000000000.0,0.9534912,-1.4493103,18.215347,-1.2399597,-0.84788513,0.09951782,10.60222701,76.11298803,8.16,0
22-02-2019 4.47,1550000000000.0,-8.336014,12.015686,-1.3404846000000001,0.38349915,-0.19914246,0.082473755,10.60222701,76.11298803,8.16,0
22-02-2019 4.47,1550000000000.0,0.75956726,2.8578644,13.757354999999999,-0.607193,-0.7115326,0.17941284,10.60222701,76.11298803,8.16,0
22-02-2019 4.47,1550000000000.0,-7.1341247999999995,11.295029,-3.1983794999999997,0.44421387,-0.23641968,0.051574707000000004,10.60222701,76.11298803,8.16,0
22-02-2019 4.47,1550000000000.0,0.22087097,2.4268951000000003,10.580246,-0.61465454,-0.64868164,0.08779907,10.60222701,76.11298803,8.16,0
22-02-2019 4.47,1550000000000.0,-6.688797,10.607895,2.3968658,0.13848877,-0.24388123,0.06755066,10.60222701,76.11298803,8.16,0
22-02-2019 4.47,1550000000000.0,1.0348969000000001,8.706894,3.3832703,-0.13954163,-0.47717285,0.08886719,10.60222701,76.11298803,8.16,0
22-02-2019 4.47,1550000000000.0,-6.2865753,3.9903107,9.84523,-0.24394226,-0.21298218,0.006835938000000001,10.60222701,76.11298803,8.16,0
22-02-2019 4.47,1550000000000.0,-0.09037781,1.5745697,14.84671,-0.2311554,-0.42497253,0.13146973,10.60222701,76.11298803,8.16,0
22-02-2019 4.47,1550000000000.0,-4.5172577,7.370926,7.886764500000001,0.42930603,-0.093673706,0.06542969,10.60222701,76.11298803,8.16,0
22-02-2019 4.47,1550000000000.0,1.1977081,6.81308,8.2435,0.21624756,-0.3866272,-0.014465332,10.60222701,76.11298803,8.16,0
22-02-2019 4.47,1550000000000.0,-5.5946503,2.0869293,6.792617999999999,0.36857605,0.023498535,-0.02192688,10.60222701,76.11298803,8.16,0
22-02-2019 4.47,1550000000000.0,5.859207,4.311142,11.954514,0.16297913,-0.5730438,0.16343689,10.60222701,76.11298803,8.16,0
22-02-2019 4.47,1550000000000.0,-7.059906,2.0964966,9.799728,0.525177,0.37823486,-0.079452515,10.60222701,76.11298803,8.16,0
22-02-2019 4.47,1550000000000.0,6.0052642999999994,6.039749,11.621719,0.23329163,-0.6412201,0.1250763,10.60222701,76.11298803,8.16,0
22-02-2019 4.47,1550000000000.0,-4.584289599999999,0.4947815,9.984085,0.20452881,0.41764832,-0.11140442,10.60222701,76.11298803,8.16,0
22-02-2019 4.47,1550000000000.0,6.309326,3.3702087,8.983307,0.26525879999999996,-0.43455505,0.11442566,10.60222701,76.11298803,8.16,0
22-02-2019 4.47,1550000000000.0,-5.1301727,4.378174,10.968109,0.48362732,0.42297363,-0.112472534,10.60222701,76.11298803,8.16,0
22-02-2019 4.47,1550000000000.0,7.403473,3.8969421000000004,11.736649,0.11291504,-0.50379944,0.09526062,10.60222701,76.11298803,8.16,0
22-02-2019 4.47,1550000000000.0,-3.3512877999999997,7.694137599999999,6.0240784000000005,0.45593262,0.60194397,-0.13804626,10.60222701,76.11298803,8.16,0
22-02-2019 4.47,1550000000000.0,5.5982513,4.6990050000000005,16.015076,-0.41651917,-0.44734192,-0.01234436,10.60222701,76.11298803,8.16,0
22-02-2019 4.47,1550000000000.0,-3.2004395,5.398102,9.52919,-0.19494629,0.5699768,-0.17318726,10.60222701,76.11298803,8.16,0
22-02-2019 4.47,1550000000000.0,7.6500699999999995,13.622192000000002,5.667343,0.56140137,-0.39727783,-0.011276245,10.60222701,76.11298803,8.16,0
22-02-2019 4.47,1550000000000.0,-1.4359131,3.0015106,4.8221893,-0.18534851,0.55400085,-0.28611755,10.60222701,76.11298803,8.16,0
22-02-2019 4.47,1550000000000.0,7.4058684999999995,8.093979,-2.2095795,0.36431885,-0.23002625,0.016418457,10.60222701,76.11298803,8.16,0
22-02-2019 4.47,1550000000000.0,-0.9067993000000001,4.75885,15.145980999999999,-0.116119385,0.43255615,-0.22006226,10.60222701,76.11298803,8.16,0
22-02-2019 4.47,1550000000000.0,4.4562073,5.398102,4.4463042999999995,0.23861694,-0.10432434,-0.065597534,10.60222701,76.11298803,8.16,0
22-02-2019 4.47,1550000000000.0,-1.9626465,4.9934845,15.337523999999998,0.10652161,0.37716675,-0.20088196,10.60222701,76.11298803,8.16,0
22-02-2019 4.47,1550000000000.0,4.384384,-1.3200226000000002,18.24887,-0.38775635,-0.20872498,-0.08584595,10.60222701,76.11298803,8.16,0
22-02-2019 4.47,1550000000000.0,1.8106232,5.912857,9.763824000000001,0.15339660000000002,0.53163147,-0.14974976,10.60222701,76.11298803,8.16,0
22-02-2019 4.47,1550000000000.0,8.3467865,21.745712,-8.997147,1.0982819,0.004333496,0.008972168,10.60222701,76.11298803,8.16,0
22-02-2019 4.47,1550000000000.0,2.7850647,-13.635803,29.513596000000003,-1.1515503,0.52523804,-0.3841095,10.60222701,76.11298803,8.16,0
22-02-2019 4.47,1550000000000.0,9.098572,12.738724000000001,-2.3987274,2.0676726999999997,0.16517639,0.15597534,10.60222701,76.11298803,8.16,0
22-02-2019 4.47,1550000000000.0,-1.7423706,-8.639099,25.266281,0.25672913,0.87997437,-0.22113037,10.60222701,76.11298803,8.16,0
22-02-2019 4.47,1550000000000.0,12.809586,5.3693695,15.722992000000001,1.1121368,-0.41113279999999996,0.02494812,10.60222701,76.11298803,8.16,0
22-02-2019 4.47,1550000000000.0,-4.5316160000000005,-3.8890076000000002,22.405212,0.8213196,1.3082122999999999,-0.42140198,10.60222701,76.11298803,8.16,0
22-02-2019 4.47,1550000000000.0,13.827117999999999,5.335861,16.728561,0.71372986,-0.6369629,0.18899536,10.60222701,76.11298803,8.16,0
22-02-2019 4.47,1550000000000.0,-2.7575226,4.7253419999999995,14.482788000000001,0.56565857,1.2155303999999998,-0.33085632,10.60222701,76.11298803,8.16,0
22-02-2019 4.47,1550000000000.0,13.106461,5.802719000000001,14.123657000000001,0.20346070000000002,-0.57836914,0.117630005,10.60222701,76.11298803,8.16,0
22-02-2019 4.47,1550000000000.0,-5.127777,7.945541400000001,9.871567,0.57844543,1.2027435,-0.2584076,10.60222701,76.11298803,8.16,0
22-02-2019 4.47,1550000000000.0,13.295608499999998,0.41098022,21.421188,-0.26631165,-0.8095398,0.10910034,10.60222701,76.11298803,8.16,0
22-02-2019 4.47,1550000000000.0,-10.845139,6.2743835,2.9211883999999997,1.2058868,1.1526794,-0.3564148,10.60222701,76.11298803,8.16,0
22-02-2019 4.47,1550000000000.0,13.24054,0.7365875,25.85286,-0.5209198,-1.3038177,0.23800659,10.60222701,76.11298803,8.16,0
22-02-2019 4.47,1550000000000.0,-10.914566,2.9823607999999995,2.4830475,1.0215912,0.9332428,-0.2232666,10.60222701,76.11298803,8.16,0
22-02-2019 4.47,1550000000000.0,11.952454,4.4835205,16.201828,-0.03302002,-1.2686614999999999,0.20497131,10.60222701,76.11298803,8.16,0
22-02-2019 4.47,1550000000000.0,-12.473189999999999,-5.567337,13.539474499999999,0.5794983,0.83735657,-0.23284912,10.60222701,76.11298803,8.16,0
22-02-2019 4.47,1550000000000.0,13.405731,2.6399841,15.392593,0.6828308000000001,-1.2526855,0.3956604,10.60222701,76.11298803,8.16,0
22-02-2019 4.47,1550000000000.0,-13.617614999999999,-0.8483734,12.837982,1.2026825,0.92152405,-0.18811035,10.60222701,76.11298803,8.16,0
22-02-2019 4.47,1550000000000.0,12.096115,-3.6878967000000005,14.535460999999998,0.083099365,-1.2388306,0.23905945,10.60222701,76.11298803,8.16,0
22-02-2019 4.47,1550000000000.0,-13.035828,3.7772370000000004,12.689528999999999,1.1941681,0.85440063,-0.12100219999999999,10.60222701,76.11298803,8.16,0
22-02-2019 4.47,1550000000000.0,13.204620000000002,0.9568634,20.353378,-0.07989502,-1.2910309,0.34559629999999997,10.60222701,76.11298803,8.16,0
22-02-2019 4.47,1550000000000.0,-9.782104499999999,9.841736000000001,-2.2071838,0.86073303,0.93003845,-0.18278503,10.60222701,76.11298803,8.16,0
22-02-2019 4.47,1550000000000.0,10.961258,9.58078,8.10704,-0.4229126,-1.1046143,0.18260193,10.60222701,76.11298803,8.16,0
22-02-2019 4.47,1550000000000.0,-7.143692,-1.851532,16.031845,-1.0972137,0.7638550000000001,-0.2541504,10.60222701,76.11298803,8.16,0
22-02-2019 4.47,1550000000000.0,13.774445000000002,26.12471,-14.951523000000002,1.9994965,-0.7104645,0.27954102,10.60222701,76.11298803,8.16,0
22-02-2019 4.47,1550000000000.0,-7.7039337,-8.083649000000001,22.086776999999998,-1.2740479,0.8671875,-0.46295166,10.60222701,76.11298803,8.16,0
22-02-2019 4.47,1550000000000.0,11.282074,4.653503400000001,14.425339000000001,0.58695984,-0.7157898,0.19752502,10.60222701,76.11298803,8.16,0
22-02-2019 4.47,1550000000000.0,-3.052002,3.7915955,4.913162000000001,0.15127563,0.87783813,-0.13165283,10.60222701,76.11298803,8.16,0
22-02-2019 4.47,1550000000000.0,8.473678999999999,13.837662,2.3250427000000005,0.45167542,-0.47717285,0.00151062,10.60222701,76.11298803,8.16,0
22-02-2019 4.47,1550000000000.0,-3.1836853,-5.155533,20.415619,-0.56565857,0.6392211999999999,-0.3841095,10.60222701,76.11298803,8.16,0
22-02-2019 4.47,1550000000000.0,7.070678699999999,7.9024353000000005,7.7886047000000005,1.003479,-0.2566681,0.11230469,10.60222701,76.11298803,8.16,0
22-02-2019 4.47,1550000000000.0,-2.5204926,4.7133636,10.185196000000001,0.50387573,0.5433501999999999,-0.16467285,10.60222701,76.11298803,8.16,0
22-02-2019 4.47,1550000000000.0,3.9510345,4.8354645,12.691925,-0.09161377,-0.28755188,-0.12205505,10.60222701,76.11298803,8.16,0
22-02-2019 4.47,1550000000000.0,0.44831848,5.881729,11.403853999999999,-0.10333252,0.40060425,-0.1614685,10.60222701,76.11298803,8.16,0
22-02-2019 4.47,1550000000000.0,5.667679,7.9599,8.767838000000001,0.27163696,-0.15545654,-0.07412719999999999,10.60222701,76.11298803,8.16,0
22-02-2019 4.47,1550000000000.0,-1.7663269,6.307907,5.212448,0.27163696,0.4442749,-0.26586914,10.60222701,76.11298803,8.16,0
22-02-2019 4.47,1550000000000.0,4.671692,3.375,13.479629500000001,-0.16511536,-0.3450775,-0.020858765,10.60222701,76.11298803,8.16,0
22-02-2019 4.47,1550000000000.0,0.13467407,7.976653999999999,3.3952484,0.47190857,0.31005859999999996,-0.10394287,10.60222701,76.11298803,8.16,0
22-02-2019 4.47,1550000000000.0,2.8784332000000004,8.041306,5.2842712,-0.16192627,-0.15759277,-0.056015015,10.60222701,76.11298803,8.16,0
22-02-2019 4.47,1550000000000.0,-0.9211731,-3.563385,21.337387,-0.48043823,0.16305542,-0.15934753,10.60222701,76.11298803,8.16,0
22-02-2019 4.47,1550000000000.0,6.570297200000001,8.797867,7.417511,0.9768524,-0.16931152,0.08673096,10.60222701,76.11298803,8.16,0
22-02-2019 4.47,1550000000000.0,-1.546051,3.4037322999999997,13.565810999999998,0.30360413,0.47943115,-0.20301819,10.60222701,76.11298803,8.16,0
22-02-2019 4.47,1550000000000.0,6.393127400000001,4.6175995,6.572357000000001,0.2780304,-0.30140686,-0.005950928,10.60222701,76.11298803,8.16,0
22-02-2019 4.47,1550000000000.0,2.3181915,6.829834,13.862701000000001,0.078826904,0.42190552,-0.13591003,10.60222701,76.11298803,8.16,0
22-02-2019 4.47,1550000000000.0,5.976532,9.312622,1.3003235,0.4463501,-0.02230835,-0.0016784670000000001,10.60222701,76.11298803,8.16,0
22-02-2019 4.47,1550000000000.0,1.65979,7.562469500000001,12.610535,-0.022369385,0.46559143,-0.17851257,10.60222701,76.11298803,8.16,0
22-02-2019 4.47,1550000000000.0,4.252701,4.019043,13.189926000000002,-0.30360413,-0.09687805,0.040924072,10.60222701,76.11298803,8.16,0
22-02-2019 4.47,1550000000000.0,5.6150055,9.748367,6.883590700000001,-0.17790222,0.37716675,-0.07305908,10.60222701,76.11298803,8.16,0
22-02-2019 4.47,1550000000000.0,2.8209686,19.016327,-0.67489624,0.33343506,0.17582703,-0.053878784000000006,10.60222701,76.11298803,8.16,0
22-02-2019 4.47,1550000000000.0,5.442627,-1.0901794,17.985504000000002,-1.6074829,0.23123169,-0.16467285,10.60222701,76.11298803,8.16,0
22-02-2019 4.47,1550000000000.0,6.4050902999999995,23.708954000000002,-10.938842999999999,1.6053619,0.23016357,0.11230469,10.60222701,76.11298803,8.16,0
22-02-2019 4.47,1550000000000.0,6.1680603,-1.2075042999999999,19.680603,-1.5414428999999998,0.38781738,-0.15402222,10.60222701,76.11298803,8.16,0
22-02-2019 4.47,1550000000000.0,6.2638397,17.048294,-7.421753,1.1739197000000001,0.31964109999999996,0.010040283,10.60222701,76.11298803,8.16,0
22-02-2019 4.47,1550000000000.0,4.9901123,-2.5027618,20.188171,-0.99282837,0.49221802,-0.17425537,10.60222701,76.11298803,8.16,0
22-02-2019 4.47,1550000000000.0,6.34523,7.2033385999999995,7.520461999999999,0.60614014,0.18649292,0.12721252,10.60222701,76.11298803,8.16,0
22-02-2019 4.47,1550000000000.0,3.572754,3.8299102999999994,14.442093,0.1491394,0.6498718000000001,-0.062408447,10.60222701,76.11298803,8.16,0
22-02-2019 4.47,1550000000000.0,4.5471954000000006,3.2265625,16.343094,-0.09907532,0.09060669,0.002578735,10.60222701,76.11298803,8.16,0
22-02-2019 4.47,1550000000000.0,2.5623932000000003,1.5985107,18.58406,0.21092224,0.5433501999999999,-0.14974976,10.60222701,76.11298803,8.16,0
22-02-2019 4.47,1550000000000.0,6.972519,5.328674299999999,7.441452000000001,0.70414734,6.1e-05,-0.025115967000000003,10.60222701,76.11298803,8.16,0
22-02-2019 4.47,1550000000000.0,1.9183502000000001,3.4348601999999997,9.940994,0.58802795,0.72550964,-0.12100219999999999,10.60222701,76.11298803,8.16,0
22-02-2019 4.47,1550000000000.0,7.4561462,4.591263,17.276825,0.03515625,-0.19488525,0.023880005,10.60222701,76.11298803,8.16,0
22-02-2019 4.47,1550000000000.0,2.4450836,6.738861,-1.1609192,0.40586853,0.7606659,-0.18917847,10.60222701,76.11298803,8.16,0
22-02-2019 4.47,1550000000000.0,5.354034400000001,10.720413,6.419128400000001,-0.22477722,-0.15545654,-0.020858765,10.60222701,76.11298803,8.16,0
22-02-2019 4.47,1550000000000.0,3.2854462,-2.8259735,15.579329999999999,-1.0397034,0.48368835,-0.10821533,10.60222701,76.11298803,8.16,0
22-02-2019 4.47,1550000000000.0,5.4545900000000005,15.614166,-3.7418669999999996,1.2847137,0.16731262,0.012161255,10.60222701,76.11298803,8.16,0
22-02-2019 4.47,1550000000000.0,3.1633452999999996,0.013549805,15.639191,-0.3952179,0.37716675,-0.19023132,10.60222701,76.11298803,8.16,0
22-02-2019 4.47,1550000000000.0,3.0125122,-2.9887848,10.61377,-0.07243347,0.14920044,-0.0016784670000000001,10.60222701,76.11298803,8.16,0
22-02-2019 4.47,1550000000000.0,5.2319336,17.110535000000002,0.2348938,0.7158661000000001,0.283432,-0.01020813,10.60222701,76.11298803,8.16,0
22-02-2019 4.47,1550000000000.0,-1.8070221000000002,-4.743728599999999,15.392593,-1.2879028000000001,0.27490234,-0.20515442,10.60222701,76.11298803,8.16,0
22-02-2019 4.47,1550000000000.0,2.7252045,16.021179999999998,0.28277588,0.6871033000000001,-0.011657715,0.000443,10.60222701,76.11298803,8.16,0
22-02-2019 4.47,1550000000000.0,-3.8708190000000005,-3.8147888,20.693360000000002,-1.2719268999999997,0.12683105,-0.11779785,10.60222701,76.11298803,8.16,0
22-02-2019 4.47,1550000000000.0,2.8137817000000003,18.331589,-9.521469,0.6412964,-0.2896881,0.05583191,10.60222701,76.11298803,8.16,0
22-02-2019 4.47,1550000000000.0,-3.9618073,7.6893616,0.55093384,-0.9534149,0.14920044,-0.11886597,10.60222701,76.11298803,8.16,0
22-02-2019 4.47,1550000000000.0,5.863998400000001,10.100311,2.9140167000000003,-1.2367706,-0.44522095,0.06222534,10.60222701,76.11298803,8.16,0
22-02-2019 4.47,1550000000000.0,-4.818924,16.514389,-4.010025,0.019180298000000002,0.52311707,-0.12205505,10.60222701,76.11298803,8.16,0
22-02-2019 4.47,1550000000000.0,6.206375,5.539367700000001,11.68158,-1.5403748,-0.52937317,-0.02192688,10.60222701,76.11298803,8.16,0
22-02-2019 4.47,1550000000000.0,-8.455719,8.908005000000001,5.3872222999999995,0.12783813,0.66052246,-0.19876099,10.60222701,76.11298803,8.16,0
22-02-2019 4.47,1550000000000.0,8.634094000000001,9.813019,5.861267,-0.54115295,-0.68595886,0.13893127,10.60222701,76.11298803,8.16,0
22-02-2019 4.47,1550000000000.0,-7.378326400000001,12.427475,-5.362747,0.396286,0.7564086999999999,-0.17532349,10.60222701,76.11298803,8.16,0
22-02-2019 4.47,1550000000000.0,8.674789,11.783447,2.7679596,-0.5347595,-0.733902,0.09738159,10.60222701,76.11298803,8.16,0
22-02-2019 4.47,1550000000000.0,-8.934555,5.553726,4.7503660000000005,-0.5805664,0.747879,-0.18597412,10.60222701,76.11298803,8.16,0
22-02-2019 4.47,1550000000000.0,6.0842743,17.024353,0.08166504,-0.26205444,-0.7296448,0.20391846,10.60222701,76.11298803,8.16,0
22-02-2019 4.47,1550000000000.0,-13.720566,-1.5211333999999999,32.99237,-1.6149445,0.46452332,-0.34790040000000005,10.60222701,76.11298803,8.16,0
22-02-2019 4.47,1550000000000.0,5.763443,14.448181,-11.542175,0.37071228,-0.8670654000000001,0.26675415,10.60222701,76.11298803,8.16,0
22-02-2019 4.47,1550000000000.0,-8.661621,8.963074,8.14534,-0.58802795,0.27490234,-0.12312317,10.60222701,76.11298803,8.16,0
22-02-2019 4.47,1550000000000.0,1.0564423,3.7580720000000003,2.3753203999999997,-0.3717804,-0.9075469999999999,0.20178223,10.60222701,76.11298803,8.16,0
22-02-2019 4.47,1550000000000.0,-5.0751038,8.517746,-3.5910339999999996,0.6263733,0.18754578,0.16981506,10.60222701,76.11298803,8.16,0
22-02-2019 4.47,1550000000000.0,-6.722320599999999,7.8449860000000005,2.923584,0.747818,-0.84469604,0.2891388,10.60222701,76.11298803,8.16,0
22-02-2019 4.47,1550000000000.0,-8.235458,-19.798477,29.46811,-1.7523651000000002,-0.34188843,-0.10501099,10.60222701,76.11298803,8.16,0
22-02-2019 4.47,1550000000000.0,-4.0623627,25.595596,-17.163757,2.3776702999999997,-0.82444763,0.42228699999999997,10.60222701,76.11298803,8.16,0
22-02-2019 4.47,1550000000000.0,-12.226593,-14.933456,29.029968,-3.0690307999999997,-0.22790527,-0.24349976,10.60222701,76.11298803,8.16,0
22-02-2019 4.47,1550000000000.0,-0.6697693,26.30188,-18.087920999999998,0.9576720999999999,-1.1951599,0.26463318,10.60222701,76.11298803,8.16,0
22-02-2019 4.47,1550000000000.0,-8.249817,8.675766000000001,-3.3013306000000004,-1.4412994,0.016052246000000003,-0.09968567,10.60222701,76.11298803,8.16,0
22-02-2019 4.47,1550000000000.0,-2.293045,3.7173767,9.931412,-1.2378387,-1.0982208,0.14744568,10.60222701,76.11298803,8.16,0
22-02-2019 4.47,1550000000000.0,-8.022369,4.8043365,5.265121499999999,0.09907532,0.1577301,-0.0315094,10.60222701,76.11298803,8.16,0
22-02-2019 4.47,1550000000000.0,-2.6425933999999995,8.975037,4.005768,0.17897034,-0.83403015,0.18153381,10.60222701,76.11298803,8.16,0
22-02-2019 4.47,1550000000000.0,-7.4573364,3.7891998,10.632919000000001,-0.5336914,-0.06278992,-0.15614319,10.60222701,76.11298803,8.16,0
22-02-2019 4.47,1550000000000.0,-0.80384827,1.1651611000000002,9.699173,-0.3334198,-0.7381592,0.12295532,10.60222701,76.11298803,8.16,0
22-02-2019 4.47,1550000000000.0,-1.8836365000000002,14.5008545,-7.325989,0.86605835,0.02670288,0.035598755,10.60222701,76.11298803,8.16,0
22-02-2019 4.47,1550000000000.0,-1.2539673,-5.323135400000001,22.067626999999998,-0.88949585,-0.44522095,0.04838562,10.60222701,76.11298803,8.16,0
22-02-2019 4.47,1550000000000.0,-0.557251,10.342133,-0.45703125,1.2495575,0.044799805,0.11016846,10.60222701,76.11298803,8.16,0
22-02-2019 4.47,1550000000000.0,0.77153015,0.27929688,17.212189000000002,-0.0234375,-0.12776184,0.05796814,10.60222701,76.11298803,8.16,0
22-02-2019 4.47,1550000000000.0,1.9159698,6.89209,9.742279,0.45806885,-0.021240234,0.070755005,10.60222701,76.11298803,8.16,0
22-02-2019 4.47,1550000000000.0,3.06279,4.552948000000001,12.021561,-0.029830932999999997,0.14920044,0.012161255,10.60222701,76.11298803,8.16,0
22-02-2019 4.47,1550000000000.0,2.0787659,11.527267,-0.02368164,0.6210479999999999,0.15026855,0.037734985,10.60222701,76.11298803,8.16,0
22-02-2019 4.47,1550000000000.0,4.0659485,3.4252777,17.336685,-0.36857605,0.10127258,-0.013397217,10.60222701,76.11298803,8.16,0
22-02-2019 4.47,1550000000000.0,2.9478607000000006,8.335785000000001,2.8158417,0.54008484,0.22909546,0.032409667999999996,10.60222701,76.11298803,8.16,0
22-02-2019 4.47,1550000000000.0,5.0475769999999995,8.120316,8.808533,-0.052200317,0.24081421,0.000443,10.60222701,76.11298803,8.16,0
22-02-2019 4.47,1550000000000.0,0.27593994,6.573653999999999,11.513977,-0.18748474,0.22483826,-0.03364563,10.60222701,76.11298803,8.16,0
22-02-2019 4.47,1550000000000.0,6.474518,9.171371,-2.891922,-0.25991820000000004,0.093811035,0.041992188,10.60222701,76.11298803,8.16,0
22-02-2019 4.47,1550000000000.0,0.44352722,14.620575,2.9164124,-0.07243347,0.22483826,-0.051757812,10.60222701,76.11298803,8.16,0
22-02-2019 4.47,1550000000000.0,5.406708,5.774001999999999,4.7407837,-1.0546111999999999,0.023498535,-0.01979065,10.60222701,76.11298803,8.16,0
22-02-2019 4.47,1550000000000.0,-1.8764496,13.231933999999999,-11.00827,0.28123474,0.55506897,-0.026184082,10.60222701,76.11298803,8.16,0
22-02-2019 4.47,1550000000000.0,6.067505000000001,1.7230072,18.955170000000003,-1.0886993,-0.32910156,0.030273438,10.60222701,76.11298803,8.16,0
22-02-2019 4.47,1550000000000.0,-6.3512115,-3.6735230000000003,14.473220999999999,-0.17362976,0.7276459,-0.089035034,10.60222701,76.11298803,8.16,0
22-02-2019 4.47,1550000000000.0,8.986038,15.937378,-3.23909,1.0919037,-0.35572815,0.28807068,10.60222701,76.11298803,8.16,0
22-02-2019 4.47,1550000000000.0,-9.834778,-8.050125,26.482529,-1.6788483,0.6083374,-0.35002136,10.60222701,76.11298803,8.16,0
22-02-2019 4.47,1550000000000.0,4.997299,14.757033999999999,-4.7905273,0.82450867,-0.4335022,0.18899536,10.60222701,76.11298803,8.16,0
22-02-2019 4.47,1550000000000.0,-1.6849213,10.073975,3.9578857000000003,-0.31637573,0.25360107,-0.027252197000000002,10.60222701,76.11298803,8.16,0
22-02-2019 4.47,1550000000000.0,1.1043243,4.7780000000000005,4.0273129999999995,-0.22903442,-0.24920654,-0.0357666,10.60222701,76.11298803,8.16,0
22-02-2019 4.47,1550000000000.0,-5.0152434999999995,-1.3990326000000002,19.089233,-0.49427795,0.10659790000000001,0.039855957000000004,10.60222701,76.11298803,8.16,0
22-02-2019 4.47,1550000000000.0,-3.9833527,11.922302,2.4830475,1.0066833,-0.4846344,0.25610352,10.60222701,76.11298803,8.16,0
22-02-2019 4.47,1550000000000.0,-6.0112457,-5.06456,18.50505,-0.82025146,-0.14161682,0.0036468509999999996,10.60222701,76.11298803,8.16,0
22-02-2019 4.47,1550000000000.0,-2.1613617,10.301437,5.9091644,1.1941681,-0.638031,0.26356506,10.60222701,76.11298803,8.16,0
22-02-2019 4.47,1550000000000.0,-5.867584,-7.137939500000001,20.750809,-0.5997467,-0.023376465,-0.008071899,10.60222701,76.11298803,8.16,0
22-02-2019 4.47,1550000000000.0,-0.56204224,17.230255,-8.5542145,1.8109436,-0.49635315,0.27102659999999995,10.60222701,76.11298803,8.16,0
22-02-2019 4.47,1550000000000.0,-3.2674866000000002,-3.4891663,12.797272,-1.3741913000000001,-0.117111206,-0.07199097,10.60222701,76.11298803,8.16,0
22-02-2019 4.47,1550000000000.0,-1.2443848,12.293411,3.0959778,0.38136292,-0.39834595,0.09098816,10.60222701,76.11298803,8.16,0
22-02-2019 4.47,1550000000000.0,-1.6442108,2.3909912,9.383148,-0.5763092,-0.058517455999999995,0.020690918,10.60222701,76.11298803,8.16,0
22-02-2019 4.47,1550000000000.0,-5.2857970000000005,6.2815704000000006,14.418152,0.19174194,-0.11924744,0.00151062,10.60222701,76.11298803,8.16,0
22-02-2019 4.47,1550000000000.0,0.6398468,-1.3296051000000002,19.49385,-0.33129883,-0.35679626,0.08033752400000001,10.60222701,76.11298803,8.16,0
22-02-2019 4.47,1550000000000.0,1.3964233,18.685928,-16.024124,0.6444854999999999,0.060791015999999996,0.054779053,10.60222701,76.11298803,8.16,0
22-02-2019 4.47,1550000000000.0,-0.34895325,12.997299,1.3577728,-0.9384918,-0.1639862,-0.12738037,10.60222701,76.11298803,8.16,0
22-02-2019 4.47,1550000000000.0,-4.423889,-5.47876,15.703842000000002,-1.4221344,-0.24601746,-0.08477783,10.60222701,76.11298803,8.16,0
22-02-2019 4.47,1550000000000.0,5.3684080000000005,20.409744,-11.903702000000001,1.7246703999999997,-0.26411438,0.3019104,10.60237463,76.11257047,10.39,0
22-02-2019 4.47,1550000000000.0,-6.9521637,-13.034851,26.164108,-0.8543396000000001,0.09060669,-0.15827942,10.60237463,76.11257047,10.39,0
22-02-2019 4.47,1550000000000.0,0.9534912,0.41816709999999996,12.083801,0.98750305,-0.33016968,0.17301941,10.60237463,76.11257047,10.39,0
22-02-2019 4.47,1550000000000.0,-3.8851929,4.256073000000001,15.416534,1.0301056,-0.02017212,0.152771,10.60237463,76.11257047,10.39,0
22-02-2019 4.47,1550000000000.0,1.161789,-0.41979979999999995,20.135498000000002,-0.09693909,-0.28329468,0.14212036,10.60237463,76.11257047,10.39,0
22-02-2019 4.47,1550000000000.0,-3.8373108,5.110794,11.949722,0.9001465,0.1811676,0.10803223,10.60237463,76.11257047,10.39,0
22-02-2019 4.47,1550000000000.0,5.181655999999999,3.3965454,17.805939000000002,0.104400635,-0.45799255,0.13572693,10.60237463,76.11257047,10.39,0
22-02-2019 4.47,1550000000000.0,-4.9482117,10.830551,0.41685486,0.7030791999999999,0.42297363,-0.051757812,10.60237463,76.11257047,10.39,0
22-02-2019 4.47,1550000000000.0,6.5487366,8.601547,14.43251,-0.23754883,-0.6518706999999999,0.19432068,10.60237463,76.11257047,10.39,0
22-02-2019 4.47,1550000000000.0,-3.9618073,1.6918793,0.7041626,0.14060974,0.4315032999999999,-0.07092285,10.60237463,76.11257047,10.39,0
22-02-2019 4.47,1550000000000.0,7.1377106,13.212784,2.7583922999999997,0.45167542,-0.52404785,0.19645691,10.60237463,76.11257047,10.39,0
22-02-2019 4.47,1550000000000.0,-5.5084534000000005,0.37745667,8.310547,-0.44528198,0.44215393,-0.07519531,10.60237463,76.11257047,10.39,0
22-02-2019 4.47,1550000000000.0,7.33165,10.629439999999999,9.098236,0.18855286,-0.5432129,0.18473816,10.60237463,76.11257047,10.39,0
22-02-2019 4.47,1550000000000.0,-6.729492,-6.254471,21.323029000000002,-0.48576355,0.5603943,-0.10607910000000002,10.60237463,76.11257047,10.39,0
22-02-2019 4.47,1550000000000.0,5.236725,-0.58740234,17.33429,0.6721802,-0.49954224,0.21243286,10.60237463,76.11257047,10.39,0
22-02-2019 4.47,1550000000000.0,-3.3536682,12.772247,-4.984466599999999,1.4210663000000001,0.38674927,0.08779907,10.60237463,76.11257047,10.39,0
22-02-2019 4.47,1550000000000.0,4.089905,0.8706665000000001,12.782913,-0.67111206,-0.48356628,-0.005950928,10.60237463,76.11257047,10.39,0
22-02-2019 4.47,1550000000000.0,-3.988144,11.374039,-2.4442139,0.7105255,0.26957703,-0.07199097,10.60237463,76.11257047,10.39,0
22-02-2019 4.47,1550000000000.0,2.8832245,-1.5235290000000001,20.092407,-1.0375671,-0.46971130000000005,0.101638794,10.60237463,76.11257047,10.39,0
22-02-2019 4.47,1550000000000.0,-8.692749000000001,11.163345,1.9036560000000002,0.6508789,0.21630860000000002,-0.027252197000000002,10.60237463,76.11257047,10.39,0
22-02-2019 4.47,1550000000000.0,0.78829956,-3.6304321,20.959106,-0.9736481,-0.69981384,0.08673096,10.60237463,76.11257047,10.39,0
22-02-2019 4.47,1550000000000.0,-5.1181946,14.345229999999999,-6.3252106,0.8735199,-0.08409119,0.08779907,10.60237463,76.11257047,10.39,0
22-02-2019 4.47,1550000000000.0,-0.29388428,1.0885468,16.30957,-0.8969574,-0.5261688,0.10270691,10.60237463,76.11257047,10.39,0
22-02-2019 4.47,1550000000000.0,-4.6944275,10.988571,-4.610962000000001,0.49748230000000004,-0.16078186,0.15916443,10.60237463,76.11257047,10.39,0
22-02-2019 4.47,1550000000000.0,0.5057831,5.769211,5.791839599999999,-0.5496826,-0.368515,0.061172485,10.60237463,76.11257047,10.39,0
22-02-2019 4.47,1550000000000.0,-5.1253815000000005,2.841095,12.050278,-0.30892944,-0.11924744,-0.02192688,10.60237463,76.11257047,10.39,0
22-02-2019 4.47,1550000000000.0,1.5328979999999999,6.39888,6.651367,0.2471466,-0.27583313,0.12188721,10.60237463,76.11257047,10.39,0
22-02-2019 4.47,1550000000000.0,-4.787796,8.103546000000001,4.630661,0.14381409,0.021377563,0.005767822,10.60237463,76.11257047,10.39,0
22-02-2019 4.47,1550000000000.0,-0.23641968,-0.37910459999999996,17.736511,-0.64234924,-0.37384033,0.023880005,10.60237463,76.11257047,10.39,0
22-02-2019 4.47,1550000000000.0,-2.3097992,13.545577999999999,-1.9701538,0.46446228,-0.0340271,0.09844971,10.60237463,76.11257047,10.39,0
22-02-2019 4.47,1550000000000.0,-1.1486206,7.375717,9.256256,-0.53582764,-0.25239563,-0.042160034000000006,10.60237463,76.11257047,10.39,0
22-02-2019 4.47,1550000000000.0,-2.4989471,7.1291199999999995,5.4638367,-0.35473633,-0.20553589,-0.01234436,10.60237463,76.11257047,10.39,0
22-02-2019 4.47,1550000000000.0,0.21607971,8.280731,7.1158295,0.11824036,-0.20021057,0.10697937,10.60237463,76.11257047,10.39,0
22-02-2019 4.47,1550000000000.0,-1.9817963,6.283966,3.4311523,0.13848877,-0.22257996,0.03453064,10.60237463,76.11257047,10.39,0
22-02-2019 4.47,1550000000000.0,-1.0576324,8.390854,5.267517,0.1491394,-0.22363281,0.019622803,10.60237463,76.11257047,10.39,0
22-02-2019 4.47,1550000000000.0,-0.8445587,9.233611999999999,-0.1529541,-0.08735657,-0.20339966,0.08993530000000001,10.60237463,76.11257047,10.39,0
22-02-2019 4.47,1550000000000.0,-0.9618683000000001,5.4316254,4.6929016,-0.46232605,-0.11604309,-0.011276245,10.60237463,76.11257047,10.39,0
22-02-2019 4.47,1550000000000.0,-3.8923645,4.476333599999999,11.60257,-0.2737732,-0.24707031,0.051574707000000004,10.60237463,76.11257047,10.39,0
22-02-2019 4.47,1550000000000.0,-0.8373718000000001,-0.45092773,16.285629999999998,-0.21838379,-0.28755188,0.1453247,10.60237463,76.11257047,10.39,0
22-02-2019 4.47,1550000000000.0,-5.6138,11.261505,-4.0794525,0.98643494,-0.14907837,0.16555786,10.60237463,76.11257047,10.39,0
22-02-2019 4.47,1550000000000.0,-2.2571258999999997,-5.4308624000000005,24.102692,-1.3177338,-0.5687866,0.026016235,10.60237463,76.11257047,10.39,0
22-02-2019 4.47,1550000000000.0,-3.3824004999999997,13.246292,-11.056152,0.6998749,-0.23748779999999997,0.20285034,10.60237463,76.11257047,10.39,0
22-02-2019 4.47,1550000000000.0,0.80744934,10.145813,-0.014099121000000001,-0.57310486,-0.41857910000000004,0.053710938,10.60237463,76.11257047,10.39,0
22-02-2019 4.47,1550000000000.0,-7.191574,-4.999908400000001,24.030869,-0.7787018,-0.15013123,-0.058151245,10.60237463,76.11257047,10.39,0
22-02-2019 4.47,1550000000000.0,3.7116089999999997,4.378174,11.50441,0.89907837,-0.44734192,0.3487854,10.60237463,76.11257047,10.39,0
22-02-2019 4.47,1550000000000.0,-9.604935000000001,2.3431091,13.280899,0.9022826999999999,0.15666199,0.14212036,10.60237463,76.11257047,10.39,0
22-02-2019 4.47,1550000000000.0,4.2790375,-5.665497,26.233535999999997,-0.31425476,-0.88090515,0.18048096,10.60237463,76.11257047,10.39,0
22-02-2019 4.47,1550000000000.0,-4.7303467,12.185669,-5.1472625999999995,1.4785919,0.3068695,0.10058594,10.60237463,76.11257047,10.39,0
22-02-2019 4.47,1550000000000.0,5.076308999999999,10.792236,7.228363000000001,-0.2503357,-0.70939636,0.19006348,10.60237463,76.11257047,10.39,0
22-02-2019 4.47,1550000000000.0,-6.806106599999999,-3.4149475,10.474899,-0.48788452,0.17903137,0.015365601000000001,10.60237463,76.11257047,10.39,0
22-02-2019 4.47,1550000000000.0,8.071457,15.855972,1.4918518,0.9800415000000001,-0.64974976,0.43081665,10.60237463,76.11257047,10.39,0
22-02-2019 4.47,1550000000000.0,-6.3081207,-2.6799316,16.78601,-0.605072,0.39634705,0.00151062,10.60237463,76.11257047,10.39,0
22-02-2019 4.47,1550000000000.0,4.9709625,9.233611999999999,3.9147797,0.7797699,-0.4388275,0.24545288,10.60237463,76.11257047,10.39,0
22-02-2019 4.47,1550000000000.0,-2.5755615,4.370987,10.968109,-0.0745697,0.24720764,0.07501221,10.60237463,76.11257047,10.39,0
22-02-2019 4.47,1550000000000.0,2.7802734,3.6551207999999997,10.65686,0.022369385,-0.1874237,0.16448975,10.60237463,76.11257047,10.39,0
22-02-2019 4.47,1550000000000.0,-0.09756469999999999,10.382828,7.271453999999999,0.43356323,0.16944885,0.101638794,10.60237463,76.11257047,10.39,0
22-02-2019 4.47,1550000000000.0,-0.7846985,-0.041519165,13.951279000000001,-0.37817383,-0.003128052,0.028137207,10.60237463,76.11257047,10.39,0
22-02-2019 4.47,1550000000000.0,1.5448608,13.172073000000001,-6.7705383,0.7776489000000001,-0.02230835,0.11656189,10.60237463,76.11257047,10.39,0
22-02-2019 4.47,1550000000000.0,-1.7830810000000001,1.603302,10.652069000000001,-0.88842773,-0.00100708,-0.14762878,10.60237463,76.11257047,10.39,0
22-02-2019 4.47,1550000000000.0,0.08200073,10.737167,2.4232025,0.071380615,-0.1639862,0.03453064,10.60237463,76.11257047,10.39,0
22-02-2019 4.47,1550000000000.0,0.19213867,5.714142,2.3202515,-0.45274353,0.018173218,0.07394409,10.60237463,76.11257047,10.39,0
22-02-2019 4.47,1550000000000.0,-2.5779572,4.3638153,12.565033,-0.50813293,-0.1405487,-0.01020813,10.60237463,76.11257047,10.39,0
22-02-2019 4.47,1550000000000.0,-2.621048,-1.2362213,14.379837,-0.13102722,-0.0382843,0.04838562,10.60237463,76.11257047,10.39,0
22-02-2019 4.47,1550000000000.0,0.4914093,16.004425,0.8717499,0.8468933000000001,-0.24281311,0.18792725,10.60237463,76.11257047,10.39,0
22-02-2019 4.47,1550000000000.0,-2.9322967999999996,4.5385895,13.091766,-0.6125183000000001,-0.08302307,-0.058151245,10.60237463,76.11257047,10.39,0
22-02-2019 4.47,1550000000000.0,2.0787659,11.857666,-1.8552398999999997,-0.024505615,-0.23323059,0.08886719,10.60237463,76.11257047,10.39,0
22-02-2019 4.47,1550000000000.0,-2.2164307,12.975754,0.04576111,-0.0234375,0.13536072,0.03453064,10.60237463,76.11257047,10.39,0
22-02-2019 4.47,1550000000000.0,3.8935699999999995,8.048492,-1.096283,-0.66152954,-0.36105347,0.08779907,10.60237463,76.11257047,10.39,0
22-02-2019 4.47,1550000000000.0,-1.8884276999999998,14.601410000000001,-6.918976,-0.08947754,0.34521484,0.018554688,10.60237463,76.11257047,10.39,0
22-02-2019 4.47,1550000000000.0,5.016449,2.082138,11.312866,-1.4828491000000001,-0.2982025,0.08033752400000001,10.60237463,76.11257047,10.39,0
22-02-2019 4.47,1550000000000.0,-4.6872406,7.157837,4.611496,-0.051132202,0.5188446,-0.025115967000000003,10.60237463,76.11257047,10.39,0
22-02-2019 4.47,1550000000000.0,3.6014862,2.872223,10.209137,-0.5262451,-0.28648376,0.16023254,10.60237463,76.11257047,10.39,0
22-02-2019 4.47,1550000000000.0,-5.077499400000001,0.11889648400000001,18.655884,-0.14381409,0.33135986,-0.018722534,10.60237463,76.11257047,10.39,0
22-02-2019 4.47,1550000000000.0,5.0811005,13.215179000000001,-9.815964,0.86605835,-0.27157593,0.246521,10.60237463,76.11257047,10.39,0
22-02-2019 4.47,1550000000000.0,-2.5157013,5.553726,4.0201263,-0.6817626999999999,0.24401855,-0.07519531,10.60237463,76.11257047,10.39,0
22-02-2019 4.47,1550000000000.0,-5.6856230000000005,6.011017,14.090148999999998,-0.269516,-0.42285156,-0.008071899,10.60237463,76.11257047,10.39,0
22-02-2019 4.47,1550000000000.0,-5.491699,-0.31445312,9.964935,-0.0703125,0.03414917,0.18687439,10.60237463,76.11257047,10.39,0
22-02-2019 4.47,1550000000000.0,-3.0591888,8.500992,11.15007,0.96939087,-0.6944885000000001,0.34239197,10.60237463,76.11257047,10.39,0
22-02-2019 4.47,1550000000000.0,-7.931381,-14.880783,35.898926,-1.0237121999999999,-0.058517455999999995,-0.053878784000000006,10.60237463,76.11257047,10.39,0
22-02-2019 4.47,1550000000000.0,2.1481934,23.560516,-19.110245000000003,2.7622375,-0.6604004,0.33599854,10.60237463,76.11257047,10.39,0
22-02-2019 4.47,1550000000000.0,-8.4198,2.8506775,17.336685,-1.7480927,0.12469482400000001,-0.10928345,10.60237463,76.11257047,10.39,0
22-02-2019 4.47,1550000000000.0,-0.12150574,5.1515045,3.184555,-0.42610168,-0.7402954,0.15597534,10.60237463,76.11257047,10.39,0
22-02-2019 4.47,1550000000000.0,0.3932495,22.902115,-21.9785,1.29216,0.13961792,0.12295532,10.60237463,76.11257047,10.39,0
22-02-2019 4.47,1550000000000.0,-2.0153198,-7.303131,15.445267000000001,-1.5105438,-0.42285156,-0.030441284,10.60237463,76.11257047,10.39,0
22-02-2019 4.47,1550000000000.0,-5.6138,3.0374298,29.142487,0.11079407,-0.05319214,0.012161255,10.60237463,76.11257047,10.39,0
22-02-2019 4.47,1550000000000.0,-1.6920929,9.6502075,-1.7953796000000002,0.6508789,-0.15226746,0.34771729999999995,10.60237463,76.11257047,10.39,0
22-02-2019 4.47,1550000000000.0,1.5759888000000002,7.447540299999999,-5.223877,-0.2982788,-0.08834839,0.13467407,10.60237463,76.11257047,10.39,0
22-02-2019 4.47,1550000000000.0,-2.3265686000000003,-5.203415000000001,14.753342000000002,-1.1717833999999998,-0.28862,-0.12312317,10.60237463,76.11257047,10.39,0
22-02-2019 4.47,1550000000000.0,0.19213867,9.432343,-4.9653015,1.718277,-0.09687805,0.23480225,10.60237463,76.11257047,10.39,0
22-02-2019 4.47,1550000000000.0,4.2000275,26.61792,-14.791107,1.6916351000000003,-0.335495,0.3168335,10.60237463,76.11257047,10.39,0
22-02-2019 4.47,1550000000000.0,-17.79071,-39.684708,45.358414,-5.286911,0.6914215,-0.61421204,10.60237463,76.11257047,10.39,-1
22-02-2019 4.47,1550000000000.0,12.036255,49.159317,-44.189514,1.9664764,-0.9586792,0.39352417,10.60237463,76.11257047,10.39,0
22-02-2019 4.47,1550000000000.0,-6.547546400000001,24.391312,-10.512665,-2.5907287999999995,0.5241699000000001,-0.34683228,10.60237463,76.11257047,10.39,0
22-02-2019 4.47,1550000000000.0,2.5264892999999997,-5.883376999999999,21.50978,-4.2152557,-0.74668884,-0.15509033,10.60237463,76.11257047,10.39,-1
22-02-2019 4.47,1550000000000.0,-3.8708190000000005,24.1447,-20.941817999999998,2.3744812,0.50180054,0.20817566,10.60237463,76.11257047,10.39,0
22-02-2019 4.47,1550000000000.0,5.3684080000000005,-7.4060820000000005,26.156921,-1.495636,-0.73283386,0.24333191,10.60237463,76.11257047,10.39,0
22-02-2019 4.47,1550000000000.0,-4.0575714,10.370865,-6.339584400000001,1.4445038000000001,0.6775665,-0.025115967000000003,10.60237463,76.11257047,10.39,0
22-02-2019 4.47,1550000000000.0,8.976471,4.406905999999999,10.618546,-0.15765381,-0.2566681,0.1953888,10.60237463,76.11257047,10.39,0
22-02-2019 4.47,1550000000000.0,-2.9825744999999997,6.1786194000000005,-1.1944427,-0.11291504,0.72232056,-0.17851257,10.60237463,76.11257047,10.39,0
22-02-2019 4.47,1550000000000.0,5.9262543,0.7605438,24.545624,-0.9747162,-0.06384277,0.017486572,10.60237463,76.11257047,10.39,0
22-02-2019 4.47,1550000000000.0,1.1593933,8.024550999999999,6.560378999999999,0.6135864000000001,0.52737427,0.10377502400000001,10.60237463,76.11257047,10.39,0
22-02-2019 4.47,1550000000000.0,5.057159400000001,4.540985,14.698273,0.09907532,0.17477417,0.018554688,10.60237463,76.11257047,10.39,0
22-02-2019 4.47,1550000000000.0,-1.4933777,-0.010391235,18.215347,-0.15553284,0.2823639,0.014297485,10.60237463,76.11257047,10.39,0
22-02-2019 4.47,1550000000000.0,5.277419999999999,7.054886,6.8428955,0.5432892,0.02670288,0.19006348,10.60237463,76.11257047,10.39,0
22-02-2019 4.47,1550000000000.0,3.5559845,15.798523000000001,0.007446289,0.79681396,0.18435669,0.12614441,10.60237463,76.11257047,10.39,0
22-02-2019 4.47,1550000000000.0,1.4299469,-10.384476,28.510422,-0.44102478,0.25253296,-0.01020813,10.60237463,76.11257047,10.39,0
22-02-2019 4.47,1550000000000.0,6.4888916,14.553528,0.8190918,2.0815276999999996,0.046936035,0.35198975,10.60237463,76.11257047,10.39,0
22-02-2019 4.47,1550000000000.0,-2.1517792,-6.11322,22.658997,0.3217163,0.4911499,0.06542969,10.60237463,76.11257047,10.39,0
22-02-2019 4.47,1550000000000.0,8.172011999999999,6.604782000000001,9.842834,1.0535431,-0.25027466,0.24119568,10.60237463,76.11257047,10.39,0
22-02-2019 4.47,1550000000000.0,-2.8293457,-0.33122253,21.84018,0.6498108,0.7276459,-0.036834717,10.60237463,76.11257047,10.39,0
22-02-2019 4.47,1550000000000.0,8.279755,1.3950042999999999,16.019867,0.396286,-0.28115845,0.2507782,10.60237463,76.11257047,10.39,0
22-02-2019 4.47,1550000000000.0,-2.475006,6.599991,8.435042999999999,0.96939087,0.8256530999999999,0.019622803,10.60237463,76.11257047,10.39,0
22-02-2019 4.47,1550000000000.0,8.531143,-3.3191832999999997,22.49379,-0.6551361,-0.3674469,0.16555786,10.60237463,76.11257047,10.39,0
22-02-2019 4.47,1550000000000.0,-0.50697327,14.943787,-4.0794525,0.96939087,0.9460144,-0.11140442,10.60237463,76.11257047,10.39,0
22-02-2019 4.47,1550000000000.0,8.959702,6.0062256,12.263367,-0.9331665000000001,-0.33761597,0.08354187,10.60237463,76.11257047,10.39,0
22-02-2019 4.47,1550000000000.0,-4.253891,1.8546906000000003,9.004868,-0.54115295,0.9108734,-0.21899414,10.60237463,76.11257047,10.39,0
22-02-2019 4.47,1550000000000.0,10.008362,10.840117999999999,4.0680237,0.5763092,-0.46971130000000005,0.17834473,10.60237463,76.11257047,10.39,0
22-02-2019 4.47,1550000000000.0,-3.9713745000000005,2.0390471999999997,14.2314,-0.20452881,0.7127228,-0.18704224,10.60237463,76.11257047,10.39,0
22-02-2019 4.47,1550000000000.0,7.6596527000000005,9.654999,1.9659118999999998,0.66578674,-0.31951904,0.18367004,10.60237463,76.11257047,10.39,0
22-02-2019 4.47,1550000000000.0,-0.43753052,0.97361755,17.655106,-0.17683410000000002,0.60513306,-0.062408447,10.60237463,76.11257047,10.39,0
22-02-2019 4.47,1550000000000.0,6.4960629999999995,8.149047999999999,4.697693,0.68496704,-0.06704712,0.08354187,10.60237463,76.11257047,10.39,0
22-02-2019 4.47,1550000000000.0,-0.09277344,3.1020659999999998,19.48668,0.051132202,0.6221770999999999,-0.12632751,10.60237463,76.11257047,10.39,0
22-02-2019 4.47,1550000000000.0,7.530365,7.138686999999999,10.664047,0.36325073,-0.03614807,0.13146973,10.60237463,76.11257047,10.39,0
22-02-2019 4.47,1550000000000.0,3.4937440000000004,6.4683075,5.6864930000000005,-0.11077881,0.84375,-0.12632751,10.60237463,76.11257047,10.39,0
22-02-2019 4.47,1550000000000.0,7.1209564,11.409943,9.055145,-0.104400635,0.044799805,0.05050659,10.60237463,76.11257047,10.39,0
22-02-2019 4.47,1550000000000.0,2.7467499,3.0805206000000003,10.146896,-0.9480896000000001,0.8533478000000001,-0.15614319,10.60237463,76.11257047,10.39,0
22-02-2019 4.47,1550000000000.0,9.795288000000001,20.687485000000002,-9.636398,1.1483611999999999,0.004333496,0.13893127,10.60237463,76.11257047,10.39,0
22-02-2019 4.47,1550000000000.0,-1.0744018999999998,-12.117874,25.840881,-1.2900391000000002,0.78089905,-0.24136353,10.60237463,76.11257047,10.39,0
22-02-2019 4.47,1550000000000.0,7.642898599999999,7.344589,5.2699127,1.528656,-0.06384277,0.18473816,10.60237463,76.11257047,10.39,0
22-02-2019 4.47,1550000000000.0,-0.42077637,4.002289,9.519608,0.79255676,0.7361603,-0.029388427999999998,10.60237463,76.11257047,10.39,0
22-02-2019 4.47,1550000000000.0,4.8871613,-0.5490875,20.015793,-0.5390166999999999,-0.159729,0.06542969,10.60237463,76.11257047,10.39,0
22-02-2019 4.47,1550000000000.0,0.5680236999999999,2.7405396,8.794174,0.22050476,0.6860961999999999,-0.028320312,10.60237463,76.11257047,10.39,0
22-02-2019 4.47,1550000000000.0,5.995682,9.171371,8.664886,0.31425476,-0.08409119,0.04838562,10.60237463,76.11257047,10.39,0
22-02-2019 4.47,1550000000000.0,0.88645935,3.0086975,12.287308,-0.116119385,0.6296387,-0.11354065,10.60237463,76.11257047,10.39,0
22-02-2019 4.47,1550000000000.0,5.9717407,4.533798,9.220336999999999,0.111846924,0.011779785,0.11975098,10.60237463,76.11257047,10.39,0
22-02-2019 4.47,1550000000000.0,2.1434173999999997,5.4842987,13.302444,0.16937256,0.5848999,-0.007003784,10.60237463,76.11257047,10.39,0
22-02-2019 4.47,1550000000000.0,2.5193024,0.7437744000000001,14.949660999999999,-0.024505615,0.14707947,0.002578735,10.60237463,76.11257047,10.39,0
22-02-2019 4.47,1550000000000.0,2.7491455,10.813782000000002,-0.13859558,0.8639374,0.41018677,0.052642822,10.60237463,76.11257047,10.39,0
22-02-2019 4.47,1550000000000.0,2.2751007000000003,0.45407104,14.695877,-0.7776489000000001,0.07463074,0.06436157,10.60237463,76.11257047,10.39,0
22-02-2019 4.47,1550000000000.0,2.7850647,9.295867999999999,6.1677246,0.16192627,0.38781738,0.031341553,10.60237463,76.11257047,10.39,0
22-02-2019 4.47,1550000000000.0,1.9087830000000001,5.5369720000000004,7.965774499999999,-0.3259735,0.25146484,0.03453064,10.60237463,76.11257047,10.39,0
22-02-2019 4.47,1550000000000.0,-0.32261658,3.4731598,13.814804,-0.047943115,0.29620359999999996,-0.027252197000000002,10.60237463,76.11257047,10.39,0
22-02-2019 4.47,1550000000000.0,0.9319458,-2.3160095000000003,18.967133,-0.28016663,0.09487915,0.051574707000000004,10.60237463,76.11257047,10.39,0
22-02-2019 4.47,1550000000000.0,0.5273285,11.448257,2.7320557,0.91825867,0.25253296,0.052642822,10.60237463,76.11257047,10.39,0
22-02-2019 4.47,1550000000000.0,0.60154724,0.8227844000000001,15.981567000000002,-0.66685486,-0.0052642819999999995,-0.06452942,10.60237463,76.11257047,10.39,0
22-02-2019 4.47,1550000000000.0,-0.95228577,0.16677856,8.770233000000001,0.31851196,0.20140076,0.01109314,10.60237463,76.11257047,10.39,0
22-02-2019 4.47,1550000000000.0,4.142563,9.482619999999999,7.07753,0.7073364000000001,-0.19807434,0.08033752400000001,10.60237463,76.11257047,10.39,0
22-02-2019 4.47,1550000000000.0,-4.2251587,-3.8554839999999997,18.397308,0.20346070000000002,0.318573,-0.07519531,10.60237463,76.11257047,10.39,0
22-02-2019 4.47,1550000000000.0,4.748306299999999,3.9855193999999994,9.979294,0.74568176,-0.29714966,0.22947693,10.60237463,76.11257047,10.39,0
22-02-2019 4.47,1550000000000.0,-4.347275,2.1036835,17.542587,0.6743164,0.4442749,0.15597534,10.60237463,76.11257047,10.39,0
22-02-2019 4.47,1550000000000.0,3.7283782999999997,-2.1484222,18.71814,0.027694702,-0.26306152,0.16662598,10.60237463,76.11257047,10.39,0
22-02-2019 4.47,1550000000000.0,-1.0025635,11.330933,2.8062744,1.1153258999999998,0.48049927,0.070755005,10.60237463,76.11257047,10.39,0
22-02-2019 4.47,1550000000000.0,6.134551999999999,3.430069,15.500335999999999,-0.56884766,-0.27157593,0.14212036,10.60237463,76.11257047,10.39,0
22-02-2019 4.47,1550000000000.0,-2.9873657000000002,4.1507263,16.216202,0.11079407,0.585968,-0.05494690000000001,10.60237463,76.11257047,10.39,0
22-02-2019 4.47,1550000000000.0,7.1209564,7.3134613,10.453354,0.4697876,-0.20233154,0.21243286,10.60237463,76.11257047,10.39,0
22-02-2019 4.47,1550000000000.0,-4.7542877,2.762085,9.976913,0.45593262,0.6733093000000001,-0.09223938,10.60237463,76.11257047,10.39,0
22-02-2019 4.47,1550000000000.0,7.858368,4.0525665,9.526794,0.255661,-0.43669128,0.070755005,10.60237463,76.11257047,10.39,0
22-02-2019 4.47,1550000000000.0,-1.8860321,4.509857,8.916275,0.30467224,0.72657776,-0.10928345,10.60237463,76.11257047,10.39,0
22-02-2019 4.47,1550000000000.0,6.893509,7.643860000000001,11.813263000000001,0.13423157,-0.19488525,0.061172485,10.60237463,76.11257047,10.39,0
22-02-2019 4.47,1550000000000.0,-2.2786713,0.044662476,10.575455,0.067108154,0.7382965,-0.1721344,10.60237463,76.11257047,10.39,0
22-02-2019 4.47,1550000000000.0,7.5207825,5.6542816,12.486023,0.22477722,-0.2694397,0.09098816,10.60237463,76.11257047,10.39,0
22-02-2019 4.47,1550000000000.0,-2.9442596,0.085372925,10.592209,0.14593506,0.7670593000000001,-0.14442444,10.60237463,76.11257047,10.39,0
22-02-2019 4.47,1550000000000.0,7.645294,7.7420350000000004,10.546722,0.36431885,-0.2896881,0.07182312,10.60237463,76.11257047,10.39,0
22-02-2019 4.47,1550000000000.0,-2.3361359,0.45646667,9.318497,0.07775879,0.75001526,-0.16786194,10.60237463,76.11257047,10.39,0
22-02-2019 4.47,1550000000000.0,5.885544,1.3303528,16.266479999999998,-0.07136536,-0.2651825,0.021743774,10.60237463,76.11257047,10.39,0
22-02-2019 4.47,1550000000000.0,-3.3129730000000004,4.789978,7.673691000000001,0.56140137,0.6498718000000001,-0.13591003,10.60237463,76.11257047,10.39,0
22-02-2019 4.47,1550000000000.0,4.384384,1.1124878,19.15628,-0.11717224,-0.35040283,0.012161255,10.60253019,76.1121344,9.86,0
22-02-2019 4.47,1550000000000.0,-1.5149231,10.155380000000001,1.0872344999999999,0.8010864000000001,0.41764832,-0.062408447,10.60253019,76.1121344,9.86,0
22-02-2019 4.47,1550000000000.0,3.0819397,5.8386383,8.353638,-0.20559692,-0.24494934,0.019622803,10.60253019,76.1121344,9.86,0
22-02-2019 4.47,1550000000000.0,-1.1797333,10.203261999999999,5.3201904,0.050064087,0.19500732,-0.07519531,10.60253019,76.1121344,9.86,0
22-02-2019 4.47,1550000000000.0,1.0277100000000001,3.8658142,7.087097,-0.25672913,-0.09899902,0.049453735,10.60253019,76.1121344,9.86,0
22-02-2019 4.47,1550000000000.0,2.2248077,13.521637,1.3601685,0.15127563,-0.06811523400000001,0.06010437,10.60253019,76.1121344,9.86,0
22-02-2019 4.47,1550000000000.0,-3.767868,3.418106,10.031967,-0.7893524000000001,0.12789917,-0.089035034,10.60253019,76.1121344,9.86,0
22-02-2019 4.47,1550000000000.0,3.9079437000000006,12.030045,-0.5791321,-0.33876038,-0.30780029999999997,0.15171814,10.60253019,76.1121344,9.86,0
22-02-2019 4.47,1550000000000.0,-2.8868103,10.033278999999999,2.0568848,-0.26098633,0.21630860000000002,-0.037902832000000004,10.60253019,76.1121344,9.86,0
22-02-2019 4.47,1550000000000.0,1.6693573,6.200165,7.762268,-0.6231842,-0.29501343,0.051574707000000004,10.60253019,76.1121344,9.86,0
22-02-2019 4.47,1550000000000.0,-1.2611389,8.357346000000001,4.8389435,-0.13954163,0.12683105,0.06968689,10.60253019,76.1121344,9.86,0
22-02-2019 4.47,1550000000000.0,3.1394043,9.880051,-2.1856383999999998,-0.63916016,-0.15440369,0.11123657,10.60253019,76.1121344,9.86,0
22-02-2019 4.47,1550000000000.0,-5.12059,6.372543299999999,7.3432770000000005,-0.6775055,0.20353699,-0.062408447,10.60253019,76.1121344,9.86,0
22-02-2019 4.47,1550000000000.0,3.7523193,11.7164,1.4798889,-0.53582764,-0.47503662,0.15916443,10.60253019,76.1121344,9.86,0
22-02-2019 4.47,1550000000000.0,-5.53479,5.505844000000001,3.6059417999999996,-0.5518036000000001,0.32710266,-0.013397217,10.60253019,76.1121344,9.86,0
22-02-2019 4.47,1550000000000.0,2.5216979999999998,7.3541718,8.097458,-0.45486450000000006,-0.6103363,0.18580627,10.60253019,76.1121344,9.86,0
22-02-2019 4.47,1550000000000.0,-7.229889,-2.5290985,7.4677887,-0.31318665,0.32391357,0.03878784,10.60253019,76.1121344,9.86,0
22-02-2019 4.47,1550000000000.0,3.778656,18.855911,-2.5567474,0.8010864000000001,-0.75946045,0.35198975,10.60253019,76.1121344,9.86,0
22-02-2019 4.47,1550000000000.0,-7.711120599999999,0.5019684,14.880234,-1.1952209999999999,0.27276609999999996,-0.02192688,10.60253019,76.1121344,9.86,0
22-02-2019 4.47,1550000000000.0,1.367691,9.906386999999999,-0.19606018,0.13423157,-0.6550751,0.28381348,10.60253019,76.1121344,9.86,0
22-02-2019 4.47,1550000000000.0,-3.5523987,8.017364500000001,3.1558227999999997,-0.32383728,0.0874176,0.09526062,10.60253019,76.1121344,9.86,0
22-02-2019 4.47,1550000000000.0,-2.0919342,-0.110946655,13.843535999999999,-0.6796416999999999,-0.41857910000000004,0.18899536,10.60253019,76.1121344,9.86,0
22-02-2019 4.47,1550000000000.0,-0.2866974,11.919907,5.1118927,0.6753845,-0.10113525400000001,0.24865723,10.60253019,76.1121344,9.86,0
22-02-2019 4.47,1550000000000.0,-0.7272339,2.4197235,8.130981,-0.27696228,-0.17677307,0.18580627,10.60253019,76.1121344,9.86,0
22-02-2019 4.47,1550000000000.0,-2.803009,3.3462677000000003,5.3896180000000005,-0.061782837,0.04374695,0.13679504,10.60253019,76.1121344,9.86,0
22-02-2019 4.47,1550000000000.0,0.27833557,4.9192656999999995,6.00972,-0.16830444,-0.3589325,0.23693848,10.60253019,76.1121344,9.86,0
22-02-2019 4.47,1550000000000.0,-1.8166046000000002,11.046020500000001,-6.2414093,0.51664734,0.142807,0.09738159,10.60253019,76.1121344,9.86,0
22-02-2019 4.47,1550000000000.0,1.4706421,4.038192700000001,13.539474499999999,-0.45274353,-0.3642578,0.16130066,10.60253019,76.1121344,9.86,0
22-02-2019 4.47,1550000000000.0,-3.5236663999999998,5.7093506,5.77269,-0.028762817000000003,0.34095764,0.101638794,10.60253019,76.1121344,9.86,0
22-02-2019 4.47,1550000000000.0,3.7666779000000004,3.2193756000000002,15.909744,-0.6210479999999999,-0.24601746,0.19325256,10.60253019,76.1121344,9.86,0
22-02-2019 4.47,1550000000000.0,-1.5484467,17.56305,-0.23196411,0.8234558000000001,0.4080658,-0.022994995,10.60253019,76.1121344,9.86,0
22-02-2019 4.47,1550000000000.0,3.9007568,-5.098068,19.331055,-1.1931,-0.044677734000000004,0.02281189,10.60253019,76.1121344,9.86,0
22-02-2019 4.47,1550000000000.0,1.616684,18.034698000000002,-6.7322235,1.7331848,0.4133911,0.17727661,10.60253019,76.1121344,9.86,0
22-02-2019 4.47,1550000000000.0,5.6796417,-1.6049347,17.90651,-0.6274414,0.004333496,0.08033752400000001,10.60253019,76.1121344,9.86,0
22-02-2019 4.47,1550000000000.0,0.5129547000000001,17.124907999999998,-5.503998,1.3731232,0.54548645,0.020690918,10.60253019,76.1121344,9.86,0
22-02-2019 4.47,1550000000000.0,7.5279694,1.0957184,14.154785,-0.8223877,0.14920044,0.056900024,10.60253019,76.1121344,9.86,0
22-02-2019 4.47,1550000000000.0,0.77153015,13.708374,2.4495392000000002,0.5667267,0.56892395,-0.061340332000000004,10.60253019,76.1121344,9.86,0
22-02-2019 4.47,1550000000000.0,9.122513,6.181015,10.491653,-0.95448303,0.32070923,-0.07412719999999999,10.60253019,76.1121344,9.86,0
22-02-2019 4.47,1550000000000.0,1.0205383,15.623733499999998,-7.292464999999999,0.48683167,0.7127228,-0.07305908,10.60253019,76.1121344,9.86,0
22-02-2019 4.47,1550000000000.0,9.773727000000001,2.5825195,15.476395000000002,-1.415741,0.23655700000000002,0.023880005,10.60253019,76.1121344,9.86,0
22-02-2019 4.47,1550000000000.0,1.1067200000000001,13.799362,-4.855179,0.7723236,0.8160553,-0.009140015,10.60253019,76.1121344,9.86,0
22-02-2019 4.47,1550000000000.0,9.081802,6.430008,13.982407,-0.6647185999999999,0.16731262,-0.018722534,10.60253019,76.1121344,9.86,0
22-02-2019 4.47,1550000000000.0,-1.3688812,5.831451400000001,5.248352,-0.01171875,0.8671875,-0.060272217,10.60253019,76.1121344,9.86,0
22-02-2019 4.47,1550000000000.0,9.120117,8.572815,14.032684,-0.22477722,0.19393921,-0.005950928,10.60253019,76.1121344,9.86,0
22-02-2019 4.47,1550000000000.0,-1.8309631000000002,6.57605,8.5308075,0.017044067,0.8309784,-0.23817444,10.60253019,76.1121344,9.86,0
22-02-2019 4.47,1550000000000.0,8.243835,6.137909,6.893173,0.002136231,0.23974610000000002,-0.03364563,10.60253019,76.1121344,9.86,0
22-02-2019 4.47,1550000000000.0,0.6494293000000001,6.054123000000001,10.525177000000001,0.0745697,0.5667876999999999,-0.102890015,10.60253019,76.1121344,9.86,0
22-02-2019 4.47,1550000000000.0,2.739563,4.438034,6.1701202,0.32276917,0.30899048,-0.053878784000000006,10.60253019,76.1121344,9.86,0
22-02-2019 4.47,1550000000000.0,1.9423065,3.9496154999999997,6.361664,-0.050064087,0.24401855,0.020690918,10.60253019,76.1121344,9.86,0
22-02-2019 4.47,1550000000000.0,2.5121154999999997,5.4292297,11.68158,0.06285095,0.24507141,-0.0006259999999999999,10.60253019,76.1121344,9.86,0
22-02-2019 4.47,1550000000000.0,-1.6849213,0.36549377,12.751785,-0.18962097,0.38674927,-0.08264160000000001,10.60253019,76.1121344,9.86,0
22-02-2019 4.47,1550000000000.0,3.3405150999999997,10.423538,2.978653,0.61465454,0.042678833,0.033462524,10.60253019,76.1121344,9.86,0
22-02-2019 4.47,1550000000000.0,-2.407959,0.006362915,16.848267,-0.6679229999999999,0.3058014,-0.11140442,10.60253019,76.1121344,9.86,0
22-02-2019 4.47,1550000000000.0,1.0899658,11.065186,0.71614075,0.47937012,0.00112915,0.018554688,10.60253019,76.1121344,9.86,0
22-02-2019 4.47,1550000000000.0,0.5105590999999999,5.671051,5.7870483,-0.38349915,0.13215637,-0.08689880000000001,10.60253019,76.1121344,9.86,0
22-02-2019 4.47,1550000000000.0,-1.8453217,4.9575653,13.256958,-0.111846924,0.09274292,-0.11033630000000001,10.60253019,76.1121344,9.86,0
22-02-2019 4.47,1550000000000.0,-0.2866974,1.0454407,19.216125,-0.12037659,0.030960083,-0.020858765,10.60253019,76.1121344,9.86,0
22-02-2019 4.47,1550000000000.0,-1.0815735,9.736403999999999,0.5269928,0.8745879999999999,0.09593201,-0.030441284,10.60253019,76.1121344,9.86,0
22-02-2019 4.47,1550000000000.0,-0.45909120000000003,0.20028687,17.27443,-0.58695984,-0.14480591,-0.11033630000000001,10.60253019,76.1121344,9.86,0
22-02-2019 4.47,1550000000000.0,-2.6761169999999996,9.250380999999999,2.2340546000000003,0.5976104999999999,0.052261352999999997,-0.030441284,10.60253019,76.1121344,9.86,0
22-02-2019 4.47,1550000000000.0,2.1553802,2.4795685,10.49884,-0.21411133,-0.28543090000000004,-0.04748535,10.60253019,76.1121344,9.86,0
22-02-2019 4.47,1550000000000.0,-5.8891295999999995,9.513733,6.450241,0.7542114000000001,0.0831604,-0.14123535,10.60253019,76.1121344,9.86,0
22-02-2019 4.47,1550000000000.0,-0.30825806,-6.7428894,22.907989999999998,-0.8554076999999999,-0.39941406,0.007904053000000001,10.60253019,76.1121344,9.86,0
22-02-2019 4.47,1550000000000.0,-2.644989,15.657257000000001,-6.8710938,1.3241272,-0.08409119,0.04838562,10.60253019,76.1121344,9.86,0
22-02-2019 4.47,1550000000000.0,0.6063385,-1.2601624,16.130005,-1.2048187,-0.41857910000000004,-0.005950928,10.60253019,76.1121344,9.86,0
22-02-2019 4.47,1550000000000.0,-3.4973297,9.805832,-2.547165,0.30786133,0.0021972660000000002,0.08033752400000001,10.60253019,76.1121344,9.86,0
22-02-2019 4.47,1550000000000.0,3.213623,5.7763824,12.8284,-0.45700073,-0.46012878,0.07714844,10.60253019,76.1121344,9.86,0
22-02-2019 4.47,1550000000000.0,-6.0160217000000005,9.391632000000001,1.3003235,0.31851196,0.16944885,-0.08052063,10.60253019,76.1121344,9.86,0
22-02-2019 4.47,1550000000000.0,-0.07362366,-4.463608,16.795593,-0.93955994,-0.4846344,0.07182312,10.60253019,76.1121344,9.86,0
22-02-2019 4.47,1550000000000.0,-5.338470500000001,13.215179000000001,-3.0954285,0.6764374,-0.17463684,0.08779907,10.60253019,76.1121344,9.86,0
22-02-2019 4.47,1550000000000.0,-0.8277893,3.3486633,9.150909,-0.63809204,-0.48889160000000004,0.030273438,10.60253019,76.1121344,9.86,0
22-02-2019 4.47,1550000000000.0,-4.5196533,10.176926,1.2045441000000001,0.111846924,-0.2619934,0.08993530000000001,10.60253019,76.1121344,9.86,0
22-02-2019 4.47,1550000000000.0,1.0588378999999999,5.0246124000000005,4.752762000000001,-0.37710570000000004,-0.42178345,0.16236877,10.60253019,76.1121344,9.86,0
22-02-2019 4.47,1550000000000.0,-4.8883514,4.9503937,6.6106567,-0.12037659,-0.18635559,0.04838562,10.60253019,76.1121344,9.86,0
22-02-2019 4.47,1550000000000.0,-0.15501404,4.4523926,7.9250793,-0.16404724,-0.37065125,0.1453247,10.60253019,76.1121344,9.86,0
22-02-2019 4.47,1550000000000.0,-2.8173676,4.5768889999999995,5.7798767,-0.07243347,-0.22363281,0.12081909,10.60253019,76.1121344,9.86,0
22-02-2019 4.47,1550000000000.0,2.1529846,10.816177,-0.016494751000000002,0.16511536,-0.29075623,0.18153381,10.60253019,76.1121344,9.86,0
22-02-2019 4.47,1550000000000.0,-3.7487182999999997,-2.6871185,19.350204,-0.8223877,0.00112915,0.051574707000000004,10.60253019,76.1121344,9.86,0
22-02-2019 4.47,1550000000000.0,4.999695,10.636612,2.3872833,0.9107970999999999,-0.2939453,0.2699585,10.60253019,76.1121344,9.86,0
22-02-2019 4.47,1550000000000.0,-2.4247284,-1.5450745000000001,16.285629999999998,-0.28123474,0.29515076,0.03666687,10.60253019,76.1121344,9.86,0
22-02-2019 4.47,1550000000000.0,5.495300299999999,12.86322,0.6634674,0.95874023,-0.25985718,0.25505066,10.60253019,76.1121344,9.86,0
22-02-2019 4.47,1550000000000.0,-0.11431885,0.39422607,15.485961999999999,-0.5230408,0.33988953,0.059036255,10.60253019,76.1121344,9.86,0
22-02-2019 4.47,1550000000000.0,6.8144990000000005,16.093002,-0.1481781,0.8585968,-0.11071777,0.23373413,10.60253019,76.1121344,9.86,0
22-02-2019 4.47,1550000000000.0,2.1194763,-2.8858337000000005,21.564835000000002,-0.9150543,0.49861145,-0.079452515,10.60253019,76.1121344,9.86,0
22-02-2019 4.47,1550000000000.0,5.339676,13.964554000000001,1.9323883000000002,1.1654053,0.12896729,0.15490723,10.60253019,76.1121344,9.86,0
22-02-2019 4.47,1550000000000.0,4.698028599999999,-0.29051208,16.175491,-0.46871948,0.41445923,-0.04322815,10.60253019,76.1121344,9.86,0
22-02-2019 4.47,1550000000000.0,4.8919525,12.796188,-1.175293,0.8777771000000001,0.28129578,0.10270691,10.60253019,76.1121344,9.86,0
22-02-2019 4.47,1550000000000.0,5.265457,0.41337585,18.414078,-0.45806885,0.5050049,-0.029388427999999998,10.60253019,76.1121344,9.86,0
22-02-2019 4.47,1550000000000.0,6.474518,8.304672,4.5348816,0.62957764,0.3377533,0.07182312,10.60253019,76.1121344,9.86,0
22-02-2019 4.47,1550000000000.0,4.621414,2.9440459999999997,17.882553,0.083099365,0.6626586999999999,-0.07519531,10.60253019,76.1121344,9.86,0
22-02-2019 4.47,1550000000000.0,2.102707,1.122055,16.276047,-0.055389404,0.35479736,0.000443,10.60253019,76.1121344,9.86,0
22-02-2019 4.47,1550000000000.0,3.6900635000000004,3.8131409,9.330475,0.50813293,0.41551208,-0.020858765,10.60253019,76.1121344,9.86,0
22-02-2019 4.47,1550000000000.0,4.865616,7.485855,6.972183,0.3717804,0.12043762,0.028137207,10.60253019,76.1121344,9.86,0
22-02-2019 4.47,1550000000000.0,2.011734,1.6894836,12.490814,0.18962097,0.52098083,-0.040039062,10.60253019,76.1121344,9.86,0
22-02-2019 4.47,1550000000000.0,4.4562073,3.2193756000000002,18.057343,0.029830932999999997,0.0639801,0.07182312,10.60253019,76.1121344,9.86,0
22-02-2019 4.47,1550000000000.0,0.44592285,3.4444427,11.418213,0.5773773,0.61473083,-0.040039062,10.60253019,76.1121344,9.86,0
22-02-2019 4.47,1550000000000.0,4.669296299999999,3.0446014,13.019943,0.11824036,-0.06172180000000001,0.032409667999999996,10.60253019,76.1121344,9.86,0
22-02-2019 4.47,1550000000000.0,-0.5237274000000001,4.327896,7.4438477,0.43995667,0.47731018,-0.02406311,10.60253019,76.1121344,9.86,0
22-02-2019 4.47,1550000000000.0,5.4545900000000005,5.276001,4.197296,0.1960144,-0.08302307,0.10270691,10.60253019,76.1121344,9.86,0
22-02-2019 4.47,1550000000000.0,0.89364624,4.2584686,13.264145000000001,0.14593506,0.40379333,-0.065597534,10.60253019,76.1121344,9.86,0
22-02-2019 4.47,1550000000000.0,2.6031036,2.4771729,9.117386,0.19387817,0.04586792,0.035598755,10.60253019,76.1121344,9.86,0
22-02-2019 4.47,1550000000000.0,0.26156616,6.269592299999999,15.763687,0.5443573,0.32070923,0.045181274,10.60253019,76.1121344,9.86,0
22-02-2019 4.47,1550000000000.0,2.8880157000000004,2.4436646,11.8515625,0.047943115,0.068237305,-0.003814697,10.60253019,76.1121344,9.86,0
22-02-2019 4.47,1550000000000.0,4.195236,7.327835,8.478133999999999,0.19708252,0.43043518,-0.05708313,10.60253019,76.1121344,9.86,0
22-02-2019 4.47,1550000000000.0,6.0459595,17.416992,1.9228058000000001,0.51239014,0.17796326,-0.008071899,10.60253019,76.1121344,9.86,0
22-02-2019 4.47,1550000000000.0,2.1793213,-4.006317,16.656723,-0.96832275,0.621109,-0.20941162,10.60253019,76.1121344,9.86,0
22-02-2019 4.47,1550000000000.0,8.435379,17.177582,-3.3372498,1.3773956,0.04374695,0.12614441,10.60253019,76.1121344,9.86,0
22-02-2019 4.47,1550000000000.0,-1.2348021999999998,-5.191452,23.647797,-0.6370239000000001,0.6637268,-0.22538757,10.60253019,76.1121344,9.86,0
22-02-2019 4.47,1550000000000.0,7.015609700000001,8.553664999999999,5.9809875,1.0471496999999999,-0.032958984,0.10910034,10.60253019,76.1121344,9.86,0
22-02-2019 4.47,1550000000000.0,2.2774810000000003,6.248047,8.681641,0.29614258,0.67544556,-0.11033630000000001,10.60253019,76.1121344,9.86,0
22-02-2019 4.47,1550000000000.0,3.0364532000000004,3.169098,18.471527,-0.33448792,0.0831604,-0.09010315,10.60253019,76.1121344,9.86,0
22-02-2019 4.47,1550000000000.0,3.0532074000000002,10.406769,-0.84010315,0.30572509999999997,0.52523804,-0.09756469999999999,10.60253019,76.1121344,9.86,0
22-02-2019 4.47,1550000000000.0,5.705978400000001,6.5353546,10.381530999999999,-0.49960327,0.005386353000000001,-0.034713745,10.60253019,76.1121344,9.86,0
22-02-2019 4.47,1550000000000.0,-0.6649933000000001,4.323105,5.6817017,-0.104400635,0.58062744,-0.21260071,10.60253019,76.1121344,9.86,0
22-02-2019 4.47,1550000000000.0,3.110672,-1.3032683999999999,17.39415,-0.35366820000000004,-0.093673706,0.028137207,10.60253019,76.1121344,9.86,0
22-02-2019 4.47,1550000000000.0,-1.7926483,11.110672000000001,6.900360000000001,0.9480896000000001,0.27490234,-0.05494690000000001,10.60253019,76.1121344,9.86,0
22-02-2019 4.47,1550000000000.0,-0.011367798,-2.5769806,17.875381,-0.5816345,-0.12776184,-0.04322815,10.60253019,76.1121344,9.86,0
22-02-2019 4.47,1550000000000.0,-2.1685486000000003,10.950256,0.13912964,0.96406555,0.08422851599999999,0.023880005,10.60253019,76.1121344,9.86,0
22-02-2019 4.47,1550000000000.0,1.5424652,-1.7342224,19.941574,-0.6743164,-0.33229065,0.020690918,10.60253019,76.1121344,9.86,0
22-02-2019 4.47,1550000000000.0,-1.9506683,13.088287,-7.270919999999999,0.9949646000000001,0.12683105,0.01109314,10.60253019,76.1121344,9.86,0
22-02-2019 4.47,1550000000000.0,2.82576,7.806671000000001,6.447845500000001,-0.5858916999999999,-0.38555908,0.04838562,10.60253019,76.1121344,9.86,0
22-02-2019 4.47,1550000000000.0,-7.1484833,-0.44136047,15.7612915,-0.54008484,0.054397583,-0.0315094,10.60253019,76.1121344,9.86,0
22-02-2019 4.47,1550000000000.0,5.028427,10.895187,2.7464142000000002,0.7712555,-0.48568726,0.18792725,10.60253019,76.1121344,9.86,0
22-02-2019 4.47,1550000000000.0,-2.9418792999999996,4.943207,4.982605,-0.21092224,0.15985107,-0.07305908,10.60253019,76.1121344,9.86,0
22-02-2019 4.47,1550000000000.0,0.41958618,6.2432555999999995,4.7407837,-0.18109131,-0.20446777,0.032409667999999996,10.60253019,76.1121344,9.86,0
22-02-2019 4.47,1550000000000.0,1.798645,11.742737,2.2651825,-0.5347595,-0.093673706,0.054779053,10.60253019,76.1121344,9.86,0
22-02-2019 4.47,1550000000000.0,-0.71047974,12.204819,-0.19606018,-0.20346070000000002,0.15666199,-0.04748535,10.60253019,76.1121344,9.86,0
22-02-2019 4.47,1550000000000.0,3.3955839999999995,6.6790009999999995,-2.7386932,-0.94914246,-0.08622742,-0.038970947,10.60253019,76.1121344,9.86,0
22-02-2019 4.47,1550000000000.0,-4.8763885,6.41803,12.493210000000001,-0.687088,0.24613953,-0.15614319,10.60253019,76.1121344,9.86,0
22-02-2019 4.47,1550000000000.0,4.178482,16.670013,-7.9173584,-0.46765137,-0.3173828,0.047317505,10.60253019,76.1121344,9.86,0
22-02-2019 4.47,1550000000000.0,-4.4023285,13.406707999999998,-4.7641907,-0.6998749,0.40060425,-0.13058472,10.60253019,76.1121344,9.86,0
22-02-2019 4.47,1550000000000.0,1.6047211000000001,2.276062,14.489975,-1.5158691,-0.56025696,0.008972168,10.60253019,76.1121344,9.86,0
22-02-2019 4.47,1550000000000.0,-8.61853,-3.8650665,12.608139,-0.19920349,0.52949524,-0.06452942,10.60253019,76.1121344,9.86,0
22-02-2019 4.47,1550000000000.0,8.071457,25.080841,-6.188751,1.1664581,-0.71899414,0.27528379999999997,10.60253019,76.1121344,9.86,0
22-02-2019 4.47,1550000000000.0,-11.065399000000001,-6.7955627000000005,20.822647,-2.0431824,0.69781494,-0.41180420000000006,10.60253019,76.1121344,9.86,0
22-02-2019 4.47,1550000000000.0,5.3229065,19.370667,-10.558166499999999,0.71266174,-0.70513916,0.117630005,10.60253019,76.1121344,9.86,0
22-02-2019 4.47,1550000000000.0,-6.595428500000001,3.8442687999999996,17.343872,-1.1845703,0.27490234,-0.15721129999999997,10.60253019,76.1121344,9.86,0
22-02-2019 4.47,1550000000000.0,0.19692993,11.694855,-1.2399292,0.21412659,-0.5570679000000001,0.105911255,10.60253019,76.1121344,9.86,0
22-02-2019 4.47,1550000000000.0,-6.396698000000001,7.0333404999999996,5.499756,-0.13954163,0.115112305,-0.077316284,10.60253019,76.1121344,9.86,0
22-02-2019 4.47,1550000000000.0,-3.2124175999999998,1.6368103,14.798828,0.22796631,-0.8457488999999999,0.10803223,10.60253019,76.1121344,9.86,0
22-02-2019 4.47,1550000000000.0,-5.161300700000001,-0.20912170000000002,4.9921722,0.4420929,0.042678833,0.047317505,10.60253019,76.1121344,9.86,0
22-02-2019 4.47,1550000000000.0,0.000595,11.582321,-0.35647583,1.0737915,-0.65719604,0.20178223,10.60253019,76.1121344,9.86,0
22-02-2019 4.47,1550000000000.0,-7.6799927,-5.775635,13.244995000000001,-1.1376953,0.15026855,-0.23284912,10.60253019,76.1121344,9.86,0
22-02-2019 4.47,1550000000000.0,1.3078308,11.730774,7.838882400000001,0.44102478,-0.6103363,0.13893127,10.60253019,76.1121344,9.86,0
22-02-2019 4.47,1550000000000.0,-2.2116394,7.8641357,4.314621,-0.26737976,0.18542479999999997,-0.06347656,10.60253019,76.1121344,9.86,0
22-02-2019 4.47,1550000000000.0,-0.9259491,0.7437744000000001,19.745255,-0.7233124,-0.17996216,-0.08052063,10.60253019,76.1121344,9.86,0
22-02-2019 4.47,1550000000000.0,1.0875702,9.125869999999999,3.883667,0.7233124,0.0874176,0.13893127,10.60253019,76.1121344,9.86,0
22-02-2019 4.47,1550000000000.0,3.8073883,7.789917,5.940277,-0.05859375,-0.07556152,0.037734985,10.60253019,76.1121344,9.86,0
22-02-2019 4.47,1550000000000.0,0.44113159999999996,16.157654,-8.649979,0.63916016,0.3058014,-0.09010315,10.60253019,76.1121344,9.86,0
22-02-2019 4.47,1550000000000.0,1.7076721000000001,-7.674239999999999,29.690765000000003,-0.9470215,-0.09048462,-0.15402222,10.60253019,76.1121344,9.86,0
22-02-2019 4.47,1550000000000.0,4.8751984,10.98378,0.057724,1.5094756999999999,0.21844482,0.13360596,10.60253019,76.1121344,9.86,0
22-02-2019 4.47,1550000000000.0,0.41479492,-7.2408905,31.773712,-0.03727722,0.48156738,-0.053878784000000006,10.60253019,76.1121344,9.86,0
22-02-2019 4.47,1550000000000.0,6.5224,7.964691,9.699173,1.3038788000000001,0.028823852999999997,0.032409667999999996,10.60253019,76.1121344,9.86,0
22-02-2019 4.47,1550000000000.0,1.8537139999999999,-4.317566,19.977493,0.26312256,0.7414856,-0.17425537,10.60253019,76.1121344,9.86,0
22-02-2019 4.47,1550000000000.0,11.535858000000001,14.946182,4.4487,1.2602081,-0.10006714,0.113357544,10.60253019,76.1121344,9.86,0
22-02-2019 4.47,1550000000000.0,-0.39923096,-10.152237,28.400284000000003,-0.46444702,1.0482788,-0.33937073,10.60253019,76.1121344,9.86,0
22-02-2019 4.47,1550000000000.0,14.293991,17.278137,-6.3491516,2.2349243,-0.20339966,0.22521973,10.60253019,76.1121344,9.86,0
22-02-2019 4.47,1550000000000.0,-2.8748322,-9.335815,27.375565,-0.25886536,1.2091370000000001,-0.37878418,10.60253019,76.1121344,9.86,0
22-02-2019 4.47,1550000000000.0,13.822327,3.7365265,11.061478,1.1377106000000001,-0.44627380000000005,0.12934875,10.60253019,76.1121344,9.86,0
22-02-2019 4.47,1550000000000.0,-1.2395935,9.039688,5.614669999999999,0.9384918,1.3934326000000001,-0.25947570000000003,10.60253019,76.1121344,9.86,0
22-02-2019 4.47,1550000000000.0,10.685928,-0.4700775,30.629288,-0.99069214,-0.5964813,0.00151062,10.60253019,76.1121344,9.86,0
22-02-2019 4.47,1550000000000.0,-2.6186523,6.157074,-3.8663635000000003,0.5028076,1.2155303999999998,-0.30102540000000005,10.60253019,76.1121344,9.86,0
22-02-2019 4.47,1550000000000.0,12.972382000000001,14.927032,4.831772,0.002136231,-0.64442444,0.16555786,10.60253019,76.1121344,9.86,0
22-02-2019 4.47,1550000000000.0,-7.397475999999999,-7.444397,17.556946,-1.0077361999999999,1.0216522,-0.3489685,10.60253019,76.1121344,9.86,0
22-02-2019 4.47,1550000000000.0,10.767334,11.335724,-2.4226685000000003,1.5723267,-0.6465454,0.28486633,10.60253019,76.1121344,9.86,0
22-02-2019 4.47,1550000000000.0,-6.7414703,1.390213,15.902557,0.6402283000000001,0.5987395999999999,-0.08052063,10.60253019,76.1121344,9.86,0
22-02-2019 4.47,1550000000000.0,1.9590607,-16.776993,33.040253,-1.0258484,-0.47717285,-0.0315094,10.60250683,76.11171379,10.03,0
22-02-2019 4.47,1550000000000.0,0.3070526,22.631560999999998,-14.791107,2.2381287,0.33349609999999996,0.08673096,10.60250683,76.11171379,10.03,0
22-02-2019 4.47,1550000000000.0,2.0979156000000003,1.9528503000000001,13.9895935,-1.624527,-0.33761597,-0.11566162,10.60250683,76.11171379,10.03,0
22-02-2019 4.47,1550000000000.0,-3.4949339999999998,8.3741,-2.2957764,-0.20985413,0.06504822,-0.19129944,10.60250683,76.11171379,10.03,0
22-02-2019 4.47,1550000000000.0,3.6182404000000004,13.442626999999998,2.4830475,-0.11717224,-0.4058075,0.1719513,10.60250683,76.11171379,10.03,0
22-02-2019 4.47,1550000000000.0,-3.0567932,7.028549000000001,6.9410553,-0.9576720999999999,0.03842163,-0.059204099999999996,10.60250683,76.11171379,10.03,0
22-02-2019 4.47,1550000000000.0,-4.1677094,5.2424774,12.521942,-0.40586853,-0.1437378,-0.008071899,10.60250683,76.11171379,10.03,0
22-02-2019 4.47,1550000000000.0,5.1002502,17.024353,-3.9453735,-0.37496948,-0.42071533,0.20391846,10.60250683,76.11171379,10.03,0
22-02-2019 4.47,1550000000000.0,-5.111023,12.820129,-4.991638,-0.22157288,0.37930298,-0.17958069,10.60250683,76.11171379,10.03,0
22-02-2019 4.47,1550000000000.0,7.228698700000001,14.515228,-2.7315216,-0.81599426,-0.6710510000000001,-0.0357666,10.60250683,76.11171379,10.03,0
22-02-2019 4.47,1550000000000.0,-8.285736,6.1355133,2.231659,-0.68603516,0.6626586999999999,-0.2232666,10.60250683,76.11171379,10.03,0
22-02-2019 4.47,1550000000000.0,5.0332184,13.066727,5.4757996,-0.43782043,-0.7349701,0.13679504,10.60250683,76.11171379,10.03,0
22-02-2019 4.47,1550000000000.0,-8.781326,2.8195495999999998,9.3328705,-0.67536926,0.52949524,-0.1529541,10.60250683,76.11171379,10.03,0
22-02-2019 4.47,1550000000000.0,5.878372,11.163345,3.9028167999999996,-0.10545349,-0.73709106,0.1921997,10.60250683,76.11171379,10.03,0
22-02-2019 4.47,1550000000000.0,-9.422974,3.8322906000000003,13.628067000000001,-0.46018982,0.47943115,-0.124191284,10.60250683,76.11171379,10.03,0
22-02-2019 4.47,1550000000000.0,6.512832599999999,13.236725,-9.629211,0.16725159,-0.7584076,0.26249695,10.60250683,76.11171379,10.03,0
22-02-2019 4.47,1550000000000.0,-6.269806,12.755493,-4.0866394,-0.35153198,0.42297363,-0.14337158,10.60250683,76.11171379,10.03,0
22-02-2019 4.47,1550000000000.0,3.1729126,4.1004486,4.9059906,-1.0418243,-0.77438354,-0.005950928,10.60250683,76.11171379,10.03,0
22-02-2019 4.47,1550000000000.0,-8.403046,7.442749000000001,-3.2965546000000003,-0.007461548,0.52523804,-0.13591003,10.60250683,76.11171379,10.03,0
22-02-2019 4.47,1550000000000.0,1.6382294,5.5034485,13.053452,-0.51239014,-0.8691863999999999,0.17941284,10.60250683,76.11171379,10.03,0
22-02-2019 4.47,1550000000000.0,-10.660782000000001,-7.717331,14.056625,-0.747818,0.44854736,-0.17745972,10.60250683,76.11171379,10.03,0
22-02-2019 4.47,1550000000000.0,5.7251434,17.275742,0.6275482,0.87138367,-0.88090515,0.32322693,10.60250683,76.11171379,10.03,0
22-02-2019 4.47,1550000000000.0,-10.299255,-4.5737457,15.337523999999998,-1.0876312,0.5369568,-0.22859192,10.60250683,76.11171379,10.03,0
22-02-2019 4.47,1550000000000.0,5.2582703,18.877457,-6.7801056,0.87031555,-0.7861023,0.21562195,10.60250683,76.11171379,10.03,0
22-02-2019 4.47,1550000000000.0,-5.601837000000001,2.7980042000000003,12.021561,-1.1100006000000002,0.29940796,-0.12312317,10.60250683,76.11171379,10.03,0
22-02-2019 4.47,1550000000000.0,2.4522705,15.33165,-2.3077392999999997,-0.017044067,-0.44734192,0.06010437,10.60250683,76.11171379,10.03,0
22-02-2019 4.47,1550000000000.0,-5.7933655,7.9862366,6.112671,-0.71585083,0.23548889,-0.114608765,10.60250683,76.11171379,10.03,0
22-02-2019 4.47,1550000000000.0,-0.11431885,8.065247,7.23555,-0.68496704,-0.52830505,0.07394409,10.60250683,76.11171379,10.03,0
22-02-2019 4.47,1550000000000.0,-3.2842407,8.584793,9.012039,-0.07989502,0.051193237,-0.014465332,10.60250683,76.11171379,10.03,0
22-02-2019 4.47,1550000000000.0,0.41000366,5.0916443,3.2276458999999997,-0.16937256,-0.35572815,0.08566284,10.60250683,76.11171379,10.03,0
22-02-2019 4.47,1550000000000.0,-2.644989,9.815414,7.659317,0.09375,0.011779785,0.000443,10.60250683,76.11171379,10.03,0
22-02-2019 4.47,1550000000000.0,-2.6258392,-5.172302200000001,15.174713,-0.35153198,-0.3365631,0.08354187,10.60250683,76.11171379,10.03,0
22-02-2019 4.47,1550000000000.0,2.0308838,14.845626999999999,-7.670761,1.6341094999999999,-0.09474182,0.13467407,10.60250683,76.11171379,10.03,0
22-02-2019 4.47,1550000000000.0,-3.4350739000000003,-7.544952400000001,22.972626,-0.16297913,-0.13948059,-0.06985474,10.60250683,76.11171379,10.03,0
22-02-2019 4.47,1550000000000.0,-2.0081330000000004,-1.1811676000000002,8.238708500000001,0.90760803,-0.019104003999999997,0.01109314,10.60250683,76.11171379,10.03,0
22-02-2019 4.47,1550000000000.0,0.5704193000000001,8.230438000000001,8.447006,1.2975006000000002,-0.16078186,0.20603943,10.60250683,76.11171379,10.03,0
22-02-2019 4.47,1550000000000.0,-2.8772278,-6.850631699999999,24.169739,-0.8543396000000001,0.01071167,-0.15721129999999997,10.60250683,76.11171379,10.03,0
22-02-2019 4.47,1550000000000.0,1.5185242,18.96605,-4.3835144,1.1898956,-0.058517455999999995,0.09205627400000001,10.60250683,76.11171379,10.03,0
22-02-2019 4.47,1550000000000.0,-1.7974396000000001,0.14044189999999998,19.532166,-1.3124083999999998,-0.0382843,-0.065597534,10.60250683,76.11171379,10.03,0
22-02-2019 4.47,1550000000000.0,0.541687,19.104904,-12.207764,0.33129883,-0.12350464,-0.007003784,10.60250683,76.11171379,10.03,0
22-02-2019 4.47,1550000000000.0,-3.7630767999999994,4.624771,8.526016,-1.2900391000000002,-0.04786682,-0.13377379999999997,10.60250683,76.11171379,10.03,0
22-02-2019 4.47,1550000000000.0,-0.5931549,12.609436,-1.9127044999999998,-0.40586853,-0.48356628,0.03666687,10.60250683,76.11171379,10.03,0
22-02-2019 4.47,1550000000000.0,-4.3376923,8.342972,4.7551575,-0.49748230000000004,0.027755737000000003,-0.089035034,10.60250683,76.11171379,10.03,0
22-02-2019 4.47,1550000000000.0,-1.9913788000000001,3.2313537999999995,7.448623700000001,-0.52197266,-0.5070038,0.026016235,10.60250683,76.11171379,10.03,0
22-02-2019 4.47,1550000000000.0,-4.2514954000000005,2.841095,5.159775,0.027694702,0.05758667,-0.020858765,10.60250683,76.11171379,10.03,0
22-02-2019 4.47,1550000000000.0,-0.24360657,4.433243,6.574753,0.21517944,-0.4920807,0.08993530000000001,10.60250683,76.11171379,10.03,0
22-02-2019 4.47,1550000000000.0,-3.0663757,6.260025,0.8382415999999999,0.255661,0.07463074,-0.11354065,10.60250683,76.11171379,10.03,0
22-02-2019 4.47,1550000000000.0,-1.0648193000000001,0.23860168,16.88417,-0.03515625,-0.30033875,0.020690918,10.60250683,76.11171379,10.03,0
22-02-2019 4.47,1550000000000.0,-1.0624236999999999,2.4316864,15.488357999999998,0.13955688,-0.00100708,-0.04322815,10.60250683,76.11171379,10.03,0
22-02-2019 4.47,1550000000000.0,-1.0145415999999998,6.501831,8.013657,0.33343506,0.007522583,-0.026184082,10.60250683,76.11171379,10.03,0
22-02-2019 4.47,1550000000000.0,1.7244263,8.022155999999999,6.58432,0.080963135,-0.12564087,-0.07199097,10.60250683,76.11171379,10.03,0
22-02-2019 4.47,1550000000000.0,1.8800506999999997,8.002991,2.80867,-0.31958008,0.05546569999999999,-0.1529541,10.60250683,76.11171379,10.03,0
22-02-2019 4.47,1550000000000.0,2.5695799999999998,13.346848000000001,-4.859955,0.2972107,0.028823852999999997,-0.0016784670000000001,10.60250683,76.11171379,10.03,0
22-02-2019 4.47,1550000000000.0,-0.6290741,3.5737305,15.339920000000001,-0.6636658000000001,-0.016983032,-0.102890015,10.60250683,76.11171379,10.03,0
22-02-2019 4.47,1550000000000.0,0.15382385,4.876175,11.183578500000001,0.07350159,-0.021240234,0.017486572,10.60250683,76.11171379,10.03,0
22-02-2019 4.47,1550000000000.0,1.561615,10.083557,8.475739,0.054336548,0.054397583,0.044128417999999996,10.60250683,76.11171379,10.03,0
22-02-2019 4.47,1550000000000.0,-2.5324707,3.8299102999999994,13.819595000000001,-0.2972107,0.052261352999999997,-0.17106628,10.60250683,76.11171379,10.03,0
22-02-2019 4.47,1550000000000.0,3.9845580000000003,13.219954999999999,-4.1824036,0.18215942,-0.1639862,0.004699707,10.60250683,76.11171379,10.03,0
22-02-2019 4.47,1550000000000.0,0.2519989,11.958221,-2.3245087000000004,-0.29614258,0.14601135,-0.040039062,10.60250683,76.11171379,10.03,0
22-02-2019 4.47,1550000000000.0,3.9414519999999995,2.6854706000000004,6.572357000000001,-0.9480896000000001,-0.24707031,-0.07092285,10.60250683,76.11171379,10.03,0
22-02-2019 4.47,1550000000000.0,-2.4223328,12.346085,-0.51927185,0.37071228,0.29408264,-0.011276245,10.60250683,76.11171379,10.03,0
22-02-2019 4.47,1550000000000.0,0.90800476,-3.4843903,19.800307999999998,-0.74035645,-0.28648376,0.02494812,10.60250683,76.11171379,10.03,0
22-02-2019 4.47,1550000000000.0,-2.7263947,8.005386,1.3529968,0.8585968,0.22802734,-0.017669678,10.60250683,76.11171379,10.03,0
22-02-2019 4.47,1550000000000.0,4.324523999999999,7.974273700000001,13.604126,-0.051132202,-0.2896881,0.12402344,10.60250683,76.11171379,10.03,0
22-02-2019 4.47,1550000000000.0,-3.6050720000000003,-0.32882690000000003,11.025574,-0.18855286,0.36225890000000005,-0.07199097,10.60250683,76.11171379,10.03,0
22-02-2019 4.47,1550000000000.0,3.7187957999999997,13.885544,1.8677521000000001,0.8447571,-0.22470093,0.17408752,10.60250683,76.11171379,10.03,0
22-02-2019 4.47,1550000000000.0,-4.021652,-5.6511383,22.402817000000002,-1.1643371999999999,0.17263794,-0.15081787,10.60250683,76.11171379,10.03,0
22-02-2019 4.47,1550000000000.0,0.39804077,14.8983,-0.65335083,1.0088043,-0.23109436,0.10697937,10.60250683,76.11171379,10.03,0
22-02-2019 4.47,1550000000000.0,-2.0727843999999997,2.082138,19.979874,-0.8532715,-0.15866089,-0.002746582,10.60250683,76.11171379,10.03,0
22-02-2019 4.47,1550000000000.0,-1.2683258,5.1347504,6.708816499999999,0.2790985,-0.17782593,0.07287598,10.60250683,76.11171379,10.03,0
22-02-2019 4.47,1550000000000.0,2.9478607000000006,14.148910500000001,-4.476883,0.7275696,-0.16612244,0.14958191,10.60250683,76.11171379,10.03,0
22-02-2019 4.47,1550000000000.0,-4.586685,0.42774963,16.85785,-0.44421387,-0.044677734000000004,-0.025115967000000003,10.60250683,76.11171379,10.03,0
22-02-2019 4.47,1550000000000.0,2.80661,7.730057,6.00972,0.50920105,-0.274765,0.15171814,10.60250683,76.11171379,10.03,0
22-02-2019 4.47,1550000000000.0,-3.1142578,0.9185485999999999,19.812286,0.014907837,0.14387512,0.02708435,10.60250683,76.11171379,10.03,0
22-02-2019 4.47,1550000000000.0,1.367691,1.3112030000000001,18.871368,0.16618347,-0.23002625,0.06861877400000001,10.60250683,76.11171379,10.03,0
22-02-2019 4.47,1550000000000.0,1.561615,7.026169,0.5485382,0.54115295,0.1928711,0.056900024,10.60250683,76.11171379,10.03,0
22-02-2019 4.47,1550000000000.0,5.0475769999999995,17.13208,0.5413513000000001,0.45486450000000006,-0.15440369,0.043060303,10.60250683,76.11171379,10.03,0
22-02-2019 4.47,1550000000000.0,0.24720764,-2.5721893,9.234711,-0.85647583,0.2322998,-0.19876099,10.60250683,76.11171379,10.03,0
22-02-2019 4.47,1550000000000.0,7.018005400000001,17.855133,-12.528595,1.1046753,0.004333496,0.101638794,10.60250683,76.11171379,10.03,0
22-02-2019 4.47,1550000000000.0,-3.9210968,-8.675018,27.806519,-1.1760559,0.38674927,-0.32978820000000003,10.60250683,76.11171379,10.03,0
22-02-2019 4.47,1550000000000.0,2.1434173999999997,0.45886229999999995,15.229782,0.7201233,-0.15226746,-0.003814697,10.60250683,76.11171379,10.03,0
22-02-2019 4.47,1550000000000.0,-1.1725616,4.9025115999999995,11.288925,0.9502106,0.33242798,0.061172485,10.60250683,76.11171379,10.03,0
22-02-2019 4.47,1550000000000.0,1.8153991999999999,-8.227295,29.927795,-0.74461365,-0.28862,0.044128417999999996,10.60250683,76.11171379,10.03,0
22-02-2019 4.47,1550000000000.0,1.8417358,13.4953,-6.34198,1.3326416,0.41658019999999996,0.08354187,10.60250683,76.11171379,10.03,0
22-02-2019 4.47,1550000000000.0,9.282928,14.038773,-2.7027892999999996,0.041549683,-0.2183075,0.082473755,10.60250683,76.11171379,10.03,0
22-02-2019 4.47,1550000000000.0,-5.893921,-5.4045258,20.473083,-0.5049286000000001,0.5667876999999999,-0.39903259999999996,10.60250683,76.11171379,10.03,0
22-02-2019 4.47,1550000000000.0,8.586212,3.940033,9.526794,0.6785736,-0.48143005,0.12295532,10.60250683,76.11171379,10.03,0
22-02-2019 4.47,1550000000000.0,-5.9705353,2.300003,22.211273000000002,0.539032,0.7414856,-0.08157349,10.60250683,76.11171379,10.03,0
22-02-2019 4.47,1550000000000.0,4.779433999999999,-5.3350983,23.372467,-0.19920349,-0.4611969,0.047317505,10.60250683,76.11171379,10.03,0
22-02-2019 4.47,1550000000000.0,-1.2922668,11.290237,7.4127197,1.019455,0.5614624,-0.008071899,10.60250683,76.11171379,10.03,0
22-02-2019 4.47,1550000000000.0,10.496780000000001,8.534514999999999,8.509262,0.16511536,-0.4058075,0.12081909,10.60250683,76.11171379,10.03,0
22-02-2019 4.47,1550000000000.0,-0.83018494,8.002991,8.470947,0.2705841,0.77557373,-0.30528259999999996,10.60250683,76.11171379,10.03,0
22-02-2019 4.47,1550000000000.0,9.575012,10.334946,8.181258999999999,0.09693909,-0.32910156,0.06329346,10.60250683,76.11171379,10.03,0
22-02-2019 4.47,1550000000000.0,0.7978668000000001,5.1515045,8.262665,-0.5518036000000001,0.84802246,-0.2552185,10.60250683,76.11171379,10.03,0
22-02-2019 4.47,1550000000000.0,8.126526,18.305252,-2.437027,0.45700073,-0.10752869,0.033462524,10.60250683,76.11171379,10.03,0
22-02-2019 4.47,1550000000000.0,2.418747,-0.28094482,15.919312,-1.6532898,0.7137909,-0.33937073,10.60250683,76.11171379,10.03,0
22-02-2019 4.47,1550000000000.0,9.220673,24.549332,-13.134323,1.434906,0.05758667,0.12828064,10.60250683,76.11171379,10.03,0
22-02-2019 4.47,1550000000000.0,2.1338348,-10.279129,27.847229,-1.944107,0.67970276,-0.30316162,10.60250683,76.11171379,10.03,0
22-02-2019 4.47,1550000000000.0,7.700348,16.851960000000002,-0.6222229,1.7480927,0.0831604,0.08459473,10.60250683,76.11171379,10.03,0
22-02-2019 4.47,1550000000000.0,3.4434662000000005,-0.96328735,14.561798000000001,-0.6178589,0.7414856,-0.18278503,10.60250683,76.11171379,10.03,0
22-02-2019 4.47,1550000000000.0,7.5495149999999995,13.950195,-0.41871643,0.8309021000000001,0.105529785,0.019622803,10.60250683,76.11171379,10.03,0
22-02-2019 4.47,1550000000000.0,3.5703582999999997,-1.851532,19.718918,-0.7201233,0.6850281,-0.2637329,10.60250683,76.11171379,10.03,0
22-02-2019 4.47,1550000000000.0,5.483322,10.868851,6.1820984,0.83303833,0.17903137,-0.016601562,10.60250683,76.11171379,10.03,0
22-02-2019 4.47,1550000000000.0,3.3022002999999995,2.6423798,11.626511,-0.07136536,0.55293274,-0.22113037,10.60250683,76.11171379,10.03,0
22-02-2019 4.47,1550000000000.0,5.236725,6.1594543,11.176407000000001,0.23754883,0.01071167,-0.13484192,10.60250683,76.11171379,10.03,0
22-02-2019 4.47,1550000000000.0,3.8169556000000004,6.3414154,6.960205,0.16085815,0.4677124,-0.17745972,10.60250683,76.11171379,10.03,0
22-02-2019 4.47,1550000000000.0,3.5607758,7.107558999999999,6.007324,0.10652161,0.04374695,-0.008071899,10.60250683,76.11171379,10.03,0
22-02-2019 4.47,1550000000000.0,1.7028808999999998,6.698150599999999,8.442215,0.15020752,0.30473328,-0.08477783,10.60250683,76.11171379,10.03,0
22-02-2019 4.47,1550000000000.0,0.77153015,-2.5602264,23.204864999999998,-0.6274414,-0.07450867,0.035598755,10.60250683,76.11171379,10.03,0
22-02-2019 4.47,1550000000000.0,0.9295502,14.4170685,-6.464081,1.0865784,0.17263794,0.13040161,10.60250683,76.11171379,10.03,0
22-02-2019 4.47,1550000000000.0,-1.3018493999999998,-3.7309875,24.344513,-1.5009613000000002,-0.19914246,-0.014465332,10.60250683,76.11171379,10.03,0
22-02-2019 4.47,1550000000000.0,-0.86131287,8.496201,-1.3045653999999998,0.46125793,-0.04574585,0.105911255,10.60250683,76.11171379,10.03,0
22-02-2019 4.47,1550000000000.0,2.1577759,11.314178,4.831772,0.06071472,-0.25027466,0.15171814,10.60250683,76.11171379,10.03,0
22-02-2019 4.47,1550000000000.0,-3.8804016000000003,-0.7957001,9.349625,-0.22050476,0.00112915,0.03453064,10.60250683,76.11171379,10.03,0
22-02-2019 4.47,1550000000000.0,2.4019928,1.5554047,16.094085999999997,0.092681885,-0.38130188,0.18687439,10.60250683,76.11171379,10.03,0
22-02-2019 4.47,1550000000000.0,-5.7574463,3.3462677000000003,11.276962,0.81918335,0.103393555,0.105911255,10.60250683,76.11171379,10.03,0
22-02-2019 4.47,1550000000000.0,1.7723083,0.5139313,21.31105,-0.0234375,-0.52297974,0.14958191,10.60250683,76.11171379,10.03,0
22-02-2019 4.47,1550000000000.0,-6.5571136,1.8642578,8.454193,1.0546111999999999,0.18222046,0.094192505,10.60250683,76.11171379,10.03,0
22-02-2019 4.47,1550000000000.0,6.960541,2.4197235,16.292816000000002,0.22050476,-0.733902,0.24012756,10.60250683,76.11171379,10.03,0
22-02-2019 4.47,1550000000000.0,-9.660003999999999,1.7996216,13.697494500000001,0.9938965,0.49435425,0.014297485,10.60250683,76.11171379,10.03,0
22-02-2019 4.47,1550000000000.0,9.318832,2.1826935,19.338242,0.21731567,-0.9064789000000001,0.28060913,10.60250683,76.11171379,10.03,0
22-02-2019 4.47,1550000000000.0,-11.091736000000001,0.27212524,6.366455,1.0705871999999999,0.6594696,-0.09010315,10.60250683,76.11171379,10.03,0
22-02-2019 4.47,1550000000000.0,9.163208000000001,1.129242,19.592026,-0.018112183,-1.1056823999999998,0.24758911,10.60250683,76.11171379,10.03,0
22-02-2019 4.47,1550000000000.0,-10.469238,2.8865814,6.7758636,0.6732483,0.5987395999999999,-0.112472534,10.60250683,76.11171379,10.03,0
22-02-2019 4.47,1550000000000.0,9.407425,10.935898,6.00972,0.34727478,-0.92352295,0.2657013,10.60250683,76.11171379,10.03,0
22-02-2019 4.47,1550000000000.0,-8.625702,-1.6863403000000001,15.861847000000001,-0.36964417,0.5348358,-0.13909912,10.60250683,76.11171379,10.03,0
22-02-2019 4.47,1550000000000.0,6.8408356,6.592819,11.66243,0.58909607,-0.69981384,0.16343689,10.60250683,76.11171379,10.03,0
22-02-2019 4.47,1550000000000.0,-5.0535583,5.163467400000001,-2.7075806,0.43675232,0.45706177,-0.11779785,10.60250683,76.11171379,10.03,0
22-02-2019 4.47,1550000000000.0,6.4601593,7.177002000000001,6.5220795,-0.28123474,-0.6518706999999999,0.08566284,10.60250683,76.11171379,10.03,0
22-02-2019 4.47,1550000000000.0,-5.4270477,2.015091,9.215546,-0.44314575,0.40592957,-0.16574097,10.60250683,76.11171379,10.03,0
22-02-2019 4.47,1550000000000.0,5.863998400000001,8.09877,5.35849,0.102264404,-0.48356628,0.11868286,10.60250683,76.11171379,10.03,0
22-02-2019 4.47,1550000000000.0,-5.0535583,0.91137695,11.7174835,-0.3802948,0.35800170000000003,-0.089035034,10.60250683,76.11171379,10.03,0
22-02-2019 4.47,1550000000000.0,3.000534,-2.6176757999999998,19.572860000000002,-0.18748474,-0.44627380000000005,0.17834473,10.60250683,76.11171379,10.03,0
22-02-2019 4.47,1550000000000.0,-2.0943297999999997,11.093917999999999,-1.5727233999999999,0.97792053,0.22802734,0.13467407,10.60250683,76.11171379,10.03,0
22-02-2019 4.47,1550000000000.0,3.7738647000000003,3.7915955,5.0903472999999995,-0.50387573,-0.29927063,0.17408752,10.60250683,76.11171379,10.03,0
22-02-2019 4.47,1550000000000.0,-2.58992,-0.9800415000000001,22.77391,-0.29081726,0.21418762,0.052642822,10.60250683,76.11171379,10.03,0
22-02-2019 4.47,1550000000000.0,3.1441956,3.5090790000000003,16.759674,0.55500793,-0.15013123,0.11656189,10.60250683,76.11171379,10.03,0
22-02-2019 4.47,1550000000000.0,-1.8285675,6.4276123,12.201126,0.82025146,0.29515076,-0.011276245,10.60250683,76.11171379,10.03,0
22-02-2019 4.47,1550000000000.0,3.8768157999999997,2.0174866000000002,14.691085999999999,0.010650635,-0.23002625,0.11123657,10.60250683,76.11171379,10.03,0
22-02-2019 4.47,1550000000000.0,0.6326752,13.102646,-8.463242,0.6178589,0.35586548,-0.04748535,10.60250683,76.11171379,10.03,0
22-02-2019 4.47,1550000000000.0,4.22876,11.484161,13.307235999999998,-0.71691895,-0.28648376,0.06649780000000001,10.60250683,76.11171379,10.03,0
22-02-2019 4.47,1550000000000.0,-2.4319,2.9057465000000002,5.928314,-0.81385803,0.37930298,-0.13377379999999997,10.60250683,76.11171379,10.03,0
22-02-2019 4.47,1550000000000.0,2.9167327999999997,13.461777,1.4343872,0.34088135,-0.18103027,0.010040283,10.60250683,76.11171379,10.03,0
22-02-2019 4.47,1550000000000.0,-2.6809082,-5.392563,17.173873999999998,-1.036499,0.12257385,-0.061340332000000004,10.60250683,76.11171379,10.03,0
22-02-2019 4.47,1550000000000.0,2.3229827999999997,12.247910000000001,-5.527939,1.6277313,-0.16291809,0.053710938,10.60250683,76.11171379,10.03,0
22-02-2019 4.47,1550000000000.0,-1.7543488,1.6104736000000002,16.850662,0.5059967000000001,-0.006332398,0.07287598,10.60250683,76.11171379,10.03,0
22-02-2019 4.47,1550000000000.0,0.34536743,-9.831406,26.539993,-0.6402283000000001,0.003265381,0.1250763,10.60250683,76.11171379,10.03,0
22-02-2019 4.47,1550000000000.0,-2.8820189999999997,10.05722,6.8261414,1.6362457000000001,0.15559387,0.010040283,10.60250683,76.11171379,10.03,0
22-02-2019 4.47,1550000000000.0,1.5448608,-3.8866120000000004,20.099594,-0.6263733,-0.26306152,0.000443,10.60250683,76.11171379,10.03,0
22-02-2019 4.47,1550000000000.0,-3.1741028,6.06369,4.587555,0.94595337,0.18222046,0.047317505,10.60250683,76.11171379,10.03,0
22-02-2019 4.47,1550000000000.0,4.8344879999999995,6.6454773000000005,6.129425,0.13742065,-0.35253906,0.11230469,10.60250683,76.11171379,10.03,0
22-02-2019 4.47,1550000000000.0,-2.9897614,5.4675293,8.928238,-0.019180298000000002,0.3846283,-0.09436035,10.60250683,76.11171379,10.03,0
22-02-2019 4.47,1550000000000.0,5.095459,6.566482499999999,9.067108000000001,-0.14274597,-0.23535156,0.08033752400000001,10.60250683,76.11171379,10.03,0
22-02-2019 4.47,1550000000000.0,0.888855,13.267853,-4.6277313,-0.33555603,0.43894958,-0.16467285,10.60250683,76.11171379,10.03,0
22-02-2019 4.47,1550000000000.0,0.58717346,6.0253906,3.1079407000000003,-0.7978821,0.05546569999999999,-0.09223938,10.60250683,76.11171379,10.03,0
22-02-2019 4.47,1550000000000.0,2.9861755000000003,8.048492,11.60257,-0.8490143,0.0320282,-0.0357666,10.60250683,76.11171379,10.03,0
22-02-2019 4.47,1550000000000.0,-2.3648682,9.056442,3.5580443999999996,0.17683410000000002,0.32710266,-0.24989319,10.60250683,76.11171379,10.03,0
22-02-2019 4.47,1550000000000.0,3.1800995,11.041244500000001,-0.014099121000000001,-0.2237091,-0.17677307,-0.15188599,10.60250683,76.11171379,10.03,0
22-02-2019 4.47,1550000000000.0,-6.463744999999999,-0.41262817,26.58548,-1.1408996999999999,0.18009949,-0.13484192,10.60250683,76.11171379,10.03,0
22-02-2019 4.47,1550000000000.0,6.8504179999999995,18.657196,-23.75261,0.36964417,-0.1671753,0.10377502400000001,10.60250683,76.11171379,10.03,0
22-02-2019 4.47,1550000000000.0,-4.356841999999999,18.729020000000002,-2.5327911,-1.179245,0.3931427,-0.16360474,10.60250683,76.11171379,10.03,0
22-02-2019 4.47,1550000000000.0,2.8568877999999995,-9.321442,14.229004000000002,-3.0115051,-0.4611969,-0.062408447,10.60250683,76.11171379,10.03,0
22-02-2019 4.47,1550000000000.0,-1.0408783000000001,17.895844,-22.519592000000003,2.2477112,0.5465393,0.20603943,10.60250683,76.11171379,10.03,0
22-02-2019 4.47,1550000000000.0,3.5655669999999997,-20.456879,37.79274,-0.37603759999999997,-0.57092285,0.1687622,10.60250683,76.11171379,10.03,0
22-02-2019 4.47,1550000000000.0,-4.943420400000001,-15.950989000000002,25.809769,1.4136046999999998,0.5284424,-0.040039062,10.60250097,76.11123301,10.62,0
22-02-2019 4.47,1550000000000.0,9.962875,37.075790000000005,-24.916183,4.3729095000000004,-0.05319214,0.27209473,10.60250097,76.11123301,10.62,-1
22-02-2019 4.47,1550000000000.0,-5.6544952,-28.410415999999998,38.791121999999994,-5.3167267,0.2823639,-0.4789276,10.60250097,76.11123301,10.62,-1
22-02-2019 4.47,1550000000000.0,5.193619,48.800186,-41.72827,0.78616333,0.13748169,0.033462524,10.60250097,76.11123301,10.62,0
22-02-2019 4.47,1550000000000.0,-0.31782532,21.685852,-10.761673,-2.8751526000000003,-0.04786682,-0.25947570000000003,10.60250097,76.11123301,10.62,0
22-02-2019 4.47,1550000000000.0,0.49620056,2.5585785,9.464554,-4.7830353,-0.20446777,-0.16999817,10.60250097,76.11123301,10.62,-1
22-02-2019 4.47,1550000000000.0,-4.316147,26.076828,-11.863007000000001,1.3315887,0.20993042,0.11442566,10.60250097,76.11123301,10.62,0
22-02-2019 4.47,1550000000000.0,2.9718017999999997,-3.5753632000000004,18.631943,-2.2754060000000003,-0.6337738,0.15597534,10.60250097,76.11123301,10.62,0
22-02-2019 4.47,1550000000000.0,-3.0903167999999996,22.885360000000002,-9.780045,1.6809845,0.42936707,-0.0006259999999999999,10.60250097,76.11123301,10.62,0
22-02-2019 4.47,1550000000000.0,4.039626999999999,-16.374771,30.011581,-1.544632,-0.32377625,0.045181274,10.60250097,76.11123301,10.62,0
22-02-2019 4.47,1550000000000.0,-3.4566193,10.969406,0.6490935999999999,2.1475677,0.5156555,-0.06452942,10.60250097,76.11123301,10.62,0
22-02-2019 4.47,1550000000000.0,4.008499,-1.3320007,15.153167999999999,0.5997467,-0.22257996,0.12188721,10.60250097,76.11123301,10.62,0
22-02-2019 4.47,1550000000000.0,-1.5364685,2.458023,4.2332152999999995,0.42610168,0.42510986,-0.061340332000000004,10.60250097,76.11123301,10.62,0
22-02-2019 4.47,1550000000000.0,4.3628387,-3.2808685,18.71814,0.28762817,-0.17996216,0.05050659,10.60250097,76.11123301,10.62,0
22-02-2019 4.47,1550000000000.0,-3.040039,-0.35276794,15.292038,0.45167542,0.3611908,-0.05281067,10.60250097,76.11123301,10.62,0
22-02-2019 4.47,1550000000000.0,3.7930144999999995,10.7659,2.0425261999999997,1.1408996999999999,-0.04147339,0.08886719,10.60250097,76.11123301,10.62,0
22-02-2019 4.47,1550000000000.0,-2.7144165,-6.2568665,25.330917000000003,-1.0929565,0.23655700000000002,0.01322937,10.60250097,76.11123301,10.62,0
22-02-2019 4.47,1550000000000.0,6.0770874,24.290756,-18.406357,0.96939087,-0.012710571,0.15065002,10.60250097,76.11123301,10.62,0
22-02-2019 4.47,1550000000000.0,-4.4573975,9.791458,2.2412415,-1.5979003999999999,0.27490234,-0.24031067,10.60250097,76.11123301,10.62,0
22-02-2019 4.47,1550000000000.0,3.8983612,11.709213,-4.5702667,-1.831192,-0.4846344,-0.0357666,10.60250097,76.11123301,10.62,0
22-02-2019 4.47,1550000000000.0,-5.731125,11.457825,-9.282059,-0.22157288,0.4677124,-0.11886597,10.60250097,76.11123301,10.62,0
22-02-2019 4.47,1550000000000.0,5.030822799999999,11.4721985,3.0552672999999997,-1.0450287,-0.7168579,0.08140564,10.60250097,76.11123301,10.62,0
22-02-2019 4.47,1550000000000.0,-11.788452000000001,1.5985107,9.493271,-0.96832275,0.6775665,-0.24563599,10.60250097,76.11123301,10.62,0
22-02-2019 4.47,1550000000000.0,5.430649,10.660553,8.511658,-0.41758728,-0.9373627,0.23373413,10.60250097,76.11123301,10.62,0
22-02-2019 4.47,1550000000000.0,-11.455658,0.13085938,12.799667,-0.54434204,0.6733093000000001,-0.25308228,10.60250097,76.11123301,10.62,0
22-02-2019 4.47,1550000000000.0,5.0260315,9.276717999999999,1.4583435,0.28335570000000004,-0.8457488999999999,0.15490723,10.60250097,76.11123301,10.62,0
22-02-2019 4.47,1550000000000.0,-8.8172455,6.5305634,8.715164,-0.10865784,0.47943115,-0.089035034,10.60250097,76.11123301,10.62,0
22-02-2019 4.47,1550000000000.0,4.535217299999999,12.796188,-16.507751000000003,0.302536,-0.7903595,0.18687439,10.60250097,76.11123301,10.62,0
22-02-2019 4.47,1550000000000.0,-6.2961426,9.032501,2.303482,-1.1654053,0.3888855,-0.16467285,10.60250097,76.11123301,10.62,0
22-02-2019 4.47,1550000000000.0,-0.39923096,-6.721344,25.472182999999998,-1.7640839,-0.82658386,-0.07305908,10.60250097,76.11123301,10.62,0
22-02-2019 4.47,1550000000000.0,-3.5308532999999995,11.383606,-20.654510000000002,2.136917,0.33561707,-0.041107178,10.60250097,76.11123301,10.62,0
22-02-2019 4.47,1550000000000.0,5.289398,-7.966324,22.002975,0.03515625,-0.6550751,0.14425659,10.60250097,76.11123301,10.62,0
22-02-2019 4.47,1550000000000.0,-9.578598,-16.645310000000002,19.55371,-0.13102722,0.69355774,0.026016235,10.60250097,76.11123301,10.62,0
22-02-2019 4.47,1550000000000.0,7.767395,33.237885,-14.314667000000002,2.3467712000000005,-0.684906,0.39459229999999995,10.60250097,76.11123301,10.62,0
22-02-2019 4.47,1550000000000.0,-2.3265686000000003,13.049973,14.664748999999999,-2.2061615000000003,0.16838074,-0.2509613,10.60250097,76.11123301,10.62,0
22-02-2019 4.47,1550000000000.0,0.65901184,-3.6902769999999996,7.944228999999999,-3.5569153,0.283432,-0.1763916,10.60250097,76.11123301,10.62,-1
22-02-2019 4.47,1550000000000.0,4.975754,52.111374,-39.037186,4.014983999999999,-0.16291809,0.32641602,10.60250097,76.11123301,10.62,-1
22-02-2019 4.47,1550000000000.0,4.568741,-21.134445,38.43918,-4.7255096,0.22270203,-0.16893005,10.60250097,76.11123301,10.62,-1
22-02-2019 4.47,1550000000000.0,9.184753,30.415115000000004,-26.826766999999997,4.250412,0.12257385,0.12402344,10.60250097,76.11123301,10.62,-1
22-02-2019 4.47,1550000000000.0,-1.2635345,-12.958236999999999,30.483246,-1.2058716,0.7670593000000001,-0.1295166,10.60250097,76.11123301,10.62,0
22-02-2019 4.47,1550000000000.0,5.265457,-11.239197,30.729843,0.024505615,-0.13735962,-0.062408447,10.60250097,76.11123301,10.62,0
22-02-2019 4.47,1550000000000.0,-1.2659302,17.07463,-6.564636,2.342514,0.6669159,-0.09649658,10.60250097,76.11123301,10.62,0
22-02-2019 4.47,1550000000000.0,3.5655669999999997,-10.281525,29.73146,-2.179535,-0.45054626,0.006835938000000001,10.60250097,76.11123301,10.62,0
22-02-2019 4.47,1550000000000.0,-5.094253500000001,9.82019,0.8669739,1.0428925,0.42085266,-0.008071899,10.60250097,76.11123301,10.62,0
22-02-2019 4.47,1550000000000.0,5.3947449999999995,-3.9847717000000005,18.071701,-0.76379395,-0.5805054000000001,0.2273407,10.60250097,76.11123301,10.62,0
22-02-2019 4.47,1550000000000.0,-3.6290129999999996,16.586212,-12.09285,1.2410278000000001,0.32817078,0.037734985,10.60250097,76.11123301,10.62,0
22-02-2019 4.47,1550000000000.0,0.6494293000000001,-1.9927979,15.924103,-1.7086792000000002,-0.48356628,-0.0315094,10.60250097,76.11123301,10.62,0
22-02-2019 4.47,1550000000000.0,-5.518036,8.785903999999999,3.2922974000000003,-0.18322754,0.0021972660000000002,-0.0006259999999999999,10.60250097,76.11123301,10.62,0
22-02-2019 4.47,1550000000000.0,0.17538452,5.831451400000001,11.322449,-0.33129883,-0.42922974,0.12402344,10.60250097,76.11123301,10.62,0
22-02-2019 4.47,1550000000000.0,-5.096649,6.157074,5.765503,0.19494629,-0.22576904,0.06542969,10.60250097,76.11123301,10.62,0
22-02-2019 4.47,1550000000000.0,0.2567749,1.5601958999999999,7.8795776,-0.10333252,-0.40153503,0.15704346,10.60250097,76.11123301,10.62,0
22-02-2019 4.47,1550000000000.0,-5.3480377,10.33255,6.222793599999999,0.3440857,-0.117111206,0.22628784,10.60250097,76.11123301,10.62,0
22-02-2019 4.47,1550000000000.0,0.16819763,4.0717163,16.675888,-0.43995667,-0.37384033,0.1485138,10.60250097,76.11123301,10.62,0
22-02-2019 4.47,1550000000000.0,-4.316147,8.311844,-0.25352478,0.36857605,0.04586792,0.03666687,10.60250097,76.11123301,10.62,0
22-02-2019 4.47,1550000000000.0,5.545578,6.1546783,12.648833999999999,-0.4239807,-0.5613251,0.15490723,10.60250097,76.11123301,10.62,0
22-02-2019 4.47,1550000000000.0,-7.332839999999999,-2.6128998,10.046341,-0.11505127,0.34947205,-0.049621582000000004,10.60250097,76.11123301,10.62,0
22-02-2019 4.47,1550000000000.0,6.982086,6.731674000000001,11.4206085,0.7712555,-0.6284331999999999,0.25398254,10.60250097,76.11123301,10.62,0
22-02-2019 4.47,1550000000000.0,-10.299255,4.868988,10.585037,1.0333099000000001,0.55081177,-0.06880188,10.60250097,76.11123301,10.62,0
22-02-2019 4.47,1550000000000.0,5.9669495,-5.320739700000001,25.910324,-0.56777954,-0.8968811,0.16555786,10.60250097,76.11123301,10.62,0
22-02-2019 4.47,1550000000000.0,-6.320083599999999,15.104201999999999,-4.907852,1.3092041,0.43576049999999994,0.018554688,10.60250097,76.11123301,10.62,0
22-02-2019 4.47,1550000000000.0,1.6956939999999998,-0.38868713,16.874603,-1.0183868,-0.5730438,-0.011276245,10.60250097,76.11123301,10.62,0
22-02-2019 4.47,1550000000000.0,-4.7925873,15.767395,-9.48317,0.6593933000000001,0.052261352999999997,-0.053878784000000006,10.60250097,76.11123301,10.62,0
22-02-2019 4.47,1550000000000.0,0.75717163,3.1212158,14.336746,-1.2527466,-0.49847412,0.052642822,10.60250097,76.11123301,10.62,0
22-02-2019 4.47,1550000000000.0,-6.578659,8.522537,1.4583435,-0.12783813,-0.093673706,-0.018722534,10.60250097,76.11123301,10.62,0
22-02-2019 4.47,1550000000000.0,0.22805786,1.548233,10.565872,-0.49641418,-0.40473938,0.021743774,10.60250097,76.11123301,10.62,0
22-02-2019 4.47,1550000000000.0,-6.324875,6.1594543,6.9147186000000005,0.32810974,-0.12989807,-0.038970947,10.60250097,76.11123301,10.62,0
22-02-2019 4.47,1550000000000.0,-0.2747345,1.1244507,9.601013,-0.07136536,-0.37490845,0.026016235,10.60250097,76.11123301,10.62,0
22-02-2019 4.47,1550000000000.0,-3.8875885,12.247910000000001,-3.7107391000000005,0.6956177,-0.12882996,0.03666687,10.60250097,76.11123301,10.62,0
22-02-2019 4.47,1550000000000.0,-1.5269012,0.080581665,19.359787,-1.1100006000000002,-0.36532593,-0.09649658,10.60250097,76.11123301,10.62,0
22-02-2019 4.47,1550000000000.0,-3.5763397000000006,10.160171499999999,-2.899109,0.17576599,-0.06704712,-0.003814697,10.60250097,76.11123301,10.62,0
22-02-2019 4.47,1550000000000.0,0.30467224,9.602325,7.132599000000001,-0.37922668,-0.31951904,-0.036834717,10.60250097,76.11123301,10.62,0
22-02-2019 4.47,1550000000000.0,-6.9785004,1.0286865,11.377517999999998,-0.48895264,-0.13308716,-0.1486969,10.60250097,76.11123301,10.62,0
22-02-2019 4.47,1550000000000.0,2.703659,6.710128999999999,7.659317,0.43249512,-0.48782349999999997,0.12295532,10.60250097,76.11123301,10.62,0
22-02-2019 4.47,1550000000000.0,-5.5156403,4.933624299999999,10.441376,0.34727478,0.030960083,-0.015533446999999999,10.60250097,76.11123301,10.62,0
22-02-2019 4.47,1550000000000.0,1.2072753999999999,-1.9305419999999998,15.366257000000001,-0.19281006,-0.45159912,0.019622803,10.60250097,76.11123301,10.62,0
22-02-2019 4.47,1550000000000.0,-5.012862999999999,9.846527,-0.7682648,1.0514221000000001,0.0021972660000000002,0.029205322000000002,10.60250097,76.11123301,10.62,0
22-02-2019 4.47,1550000000000.0,2.1410217,1.7804718000000002,14.762909,-0.5794983,-0.5868988,0.02281189,10.60250097,76.11123301,10.62,0
22-02-2019 4.47,1550000000000.0,-4.96019,7.416412400000001,0.38572693,0.37496948,0.09806824,-0.017669678,10.60250097,76.11123301,10.62,0
22-02-2019 4.47,1550000000000.0,3.8911742999999994,6.8585663,7.010483,-0.31105042,-0.53256226,0.13360596,10.60250097,76.11123301,10.62,0
22-02-2019 4.47,1550000000000.0,-5.846039,-0.24742126,14.236191,-0.47084045,0.09913635,-0.01020813,10.60250097,76.11123301,10.62,0
22-02-2019 4.47,1550000000000.0,3.4889525999999997,7.584014999999999,8.772629,0.5017395,-0.45373535,0.24333191,10.60250097,76.11123301,10.62,0
22-02-2019 4.47,1550000000000.0,-3.2722778,9.073212,1.1997681,0.24821472,0.14601135,0.05583191,10.60250097,76.11123301,10.62,0
22-02-2019 4.47,1550000000000.0,2.8951874,5.7572327,10.618546,-0.4037323,-0.40792847,0.07394409,10.60250097,76.11123301,10.62,0
22-02-2019 4.47,1550000000000.0,-1.68013,8.395645,4.6091003,-0.26737976,0.1300354,-0.04536438,10.60250097,76.11123301,10.62,0
22-02-2019 4.47,1550000000000.0,3.0484161,11.742737,-1.8145447000000001,0.17897034,-0.17037964,0.06329346,10.60250097,76.11123301,10.62,0
22-02-2019 4.47,1550000000000.0,-0.74398804,6.5305634,10.800507000000001,-0.58695984,0.09913635,-0.10928345,10.60250097,76.11123301,10.62,0
22-02-2019 4.47,1550000000000.0,2.1481934,4.888138,7.834091,-0.09373474,-0.040420532,0.007904053000000001,10.60250097,76.11123301,10.62,0
22-02-2019 4.47,1550000000000.0,0.5392914000000001,7.9575043,8.468552,0.036224365,0.13536072,0.016418457,10.60250097,76.11123301,10.62,0
22-02-2019 4.47,1550000000000.0,-0.07122803,4.9456024,11.521164,-0.20559692,0.02243042,-0.053878784000000006,10.60250097,76.11123301,10.62,0
22-02-2019 4.47,1550000000000.0,0.754776,6.5305634,10.412643,-0.02130127,0.02456665,-0.061340332000000004,10.60250097,76.11123301,10.62,0
22-02-2019 4.47,1550000000000.0,1.1977081,10.363678,5.911544999999999,0.3206482,0.037353516,-0.015533446999999999,10.60250097,76.11123301,10.62,0
22-02-2019 4.47,1550000000000.0,2.6031036,5.656677200000001,4.8365480000000005,-0.22477722,0.027755737000000003,-0.07305908,10.60250097,76.11123301,10.62,0
22-02-2019 4.47,1550000000000.0,0.42677307,11.929489,-2.4514007999999996,0.31318665,0.16838074,-0.058151245,10.60250097,76.11123301,10.62,0
22-02-2019 4.47,1550000000000.0,2.5432433999999997,3.3343047999999995,12.007187,-0.69454956,-0.09687805,-0.061340332000000004,10.60250097,76.11123301,10.62,0
22-02-2019 4.47,1550000000000.0,0.70210266,11.393188,0.57247925,0.43675232,0.22483826,-0.059204099999999996,10.60250097,76.11123301,10.62,0
22-02-2019 4.47,1550000000000.0,2.0691986,3.4659882000000004,18.01184,-0.47616577,0.04800415,-0.08264160000000001,10.60250097,76.11123301,10.62,0
22-02-2019 4.47,1550000000000.0,0.036514282,1.3997955,10.721497,0.07563782,0.18435669,-0.017669678,10.60250097,76.11123301,10.62,0
22-02-2019 4.47,1550000000000.0,3.6589355,11.285446,0.10321045,0.45593262,0.0597229,0.032409667999999996,10.60250097,76.11123301,10.62,0
22-02-2019 4.47,1550000000000.0,-0.40402222,3.3175507000000004,13.053452,-0.607193,0.10127258,-0.100753784,10.60250097,76.11123301,10.62,0
22-02-2019 4.47,1550000000000.0,2.4115599999999997,8.659011999999999,-1.3740082,0.20133972,0.09060669,-0.009140015,10.60250097,76.11123301,10.62,0
22-02-2019 4.47,1550000000000.0,0.29988098,7.770752000000001,7.7981872999999995,-0.41438293,0.017105103,-0.042160034000000006,10.60250097,76.11123301,10.62,0
22-02-2019 4.47,1550000000000.0,-4.0575714,-5.1315919999999995,18.01184,-0.47830200000000006,0.004333496,-0.077316284,10.60250097,76.11123301,10.62,0
22-02-2019 4.47,1550000000000.0,3.8576660000000005,6.0852356,8.971344,0.9065399,-0.29608154,0.18048096,10.60250097,76.11123301,10.62,0
