TIME,Mills,Ax,Ay,Az,Gx,Gy,Gz,Lat,Lon,Speed
22-02-2019 4.47,1.55E+12,-1.0312958,4.612808,11.607361,0.17044067,-0.17677307,0.032409668,10.60212239,76.11342096,0
22-02-2019 4.47,1.55E+12,-0.1765747,4.217758,8.406311,-0.001068115,-0.10006714,0.005767822,10.60212239,76.11342096,0
22-02-2019 4.47,1.55E+12,1.3533325,8.259171,7.7718506,0.26205444,-0.07237244,-0.01979065,10.60212239,76.11342096,0
22-02-2019 4.47,1.55E+12,-0.76794434,4.0932617,10.69278,-0.006393433,0.025634766,-0.1103363,10.60212239,76.11342096,0
22-02-2019 4.47,1.55E+12,1.2838898,3.837082,7.6449585,0.080963135,-0.051071167,-0.0315094,10.60212239,76.11342096,0
22-02-2019 4.47,1.55E+12,0.53689575,5.924835,9.52919,0.22157288,0.07144165,-0.037902832,10.60212239,76.11342096,0
22-02-2019 4.47,1.55E+12,1.0420837,3.272049,9.227524,-0.004257202,-0.025497437,-0.07305908,10.60212239,76.11342096,0
22-02-2019 4.47,1.55E+12,0.34776306,5.8553925,8.564331,0.3568573,0.12257385,-0.04748535,10.60212239,76.11342096,0
22-02-2019 4.47,1.55E+12,1.8201904,2.7692719,6.5507965,-0.09161377,-0.02230835,-0.005950928,10.60212239,76.11342096,0
22-02-2019 4.47,1.55E+12,0.96546936,6.925598,9.177246,0.23861694,0.046936035,-0.0315094,10.60212239,76.11342096,0
22-02-2019 4.47,1.55E+12,0.07003784,2.3694458,11.791718,-0.24394226,-0.004196167,-0.062408447,10.60212239,76.11342096,0
22-02-2019 4.47,1.55E+12,3.2639008,8.539291,3.4000397,0.116119385,0.08955383,0.010040283,10.60212239,76.11342096,0
22-02-2019 4.47,1.55E+12,-0.53330994,7.588806,4.4750366,-0.1725769,0.21098328,-0.0868988,10.60212239,76.11342096,0
22-02-2019 4.47,1.55E+12,3.7259827,6.5904236,11.50441,-0.36112976,-0.058517456,-0.058151245,10.60212239,76.11342096,0
22-02-2019 4.47,1.55E+12,-1.0456696,7.935959,3.7783203,0.1214447,0.34840393,-0.06666565,10.60212239,76.11342096,0
22-02-2019 4.47,1.55E+12,7.9278107,11.069962,3.962677,-0.4079895,-0.056396484,-0.016601562,10.60212239,76.11342096,0
22-02-2019 4.47,1.55E+12,-1.9602509,12.927872,-5.9253845,0.055389404,0.6157837,-0.24882507,10.60212239,76.11342096,0
22-02-2019 4.47,1.55E+12,6.910263,0.84672546,18.440414,-0.98217773,-0.23962402,-0.17318726,10.60212239,76.11342096,0
22-02-2019 4.47,1.55E+12,-1.6154785,6.520981,2.868515,0.511322,0.60513306,-0.15934753,10.60212239,76.11342096,0
22-02-2019 4.47,1.55E+12,7.6141663,10.837738,9.002472,-0.027694702,0.007522583,-0.015533447,10.60212239,76.11342096,0
22-02-2019 4.47,1.55E+12,-2.8197632,6.1881866,9.54834,-0.3483429,0.49647522,-0.2743988,10.60212239,76.11342096,0
22-02-2019 4.47,1.55E+12,6.0699005,8.92955,6.8117676,-0.23435974,-0.10220337,-0.077316284,10.60212239,76.11342096,0
22-02-2019 4.47,1.55E+12,-2.2882538,5.529785,10.132523,-0.31744385,0.39634705,-0.10394287,10.60212239,76.11342096,0
22-02-2019 4.47,1.55E+12,6.6277466,12.925476,-2.7075806,-0.06498718,-0.15440369,-0.015533447,10.60212239,76.11342096,0
22-02-2019 4.47,1.55E+12,-4.419098,9.128265,0.9004822,-0.48788452,0.44854736,-0.16786194,10.60212239,76.11342096,0
22-02-2019 4.47,1.55E+12,5.557541,3.1116486,15.028671,-0.94914246,-0.44947815,-6.26E-04,10.60212239,76.11342096,0
22-02-2019 4.47,1.55E+12,-2.9346924,13.394745,-3.1720428,0.8468933,0.5561371,-0.008071899,10.60212239,76.11342096,0
22-02-2019 4.47,1.55E+12,4.0372314,1.7565308,15.107681,-0.37390137,-0.32377625,0.082473755,10.60212239,76.11342096,0
22-02-2019 4.47,1.55E+12,-1.7280121,8.563232,5.10231,0.6093292,0.30899048,-0.07519531,10.60212239,76.11342096,0
22-02-2019 4.47,1.55E+12,2.1793213,2.1635437,13.551453,0.123565674,-0.1437378,0.016418457,10.60212239,76.11342096,0
22-02-2019 4.47,1.55E+12,-0.27952576,4.3255005,7.6377716,0.41651917,0.14813232,-0.032577515,10.60212239,76.11342096,0
22-02-2019 4.47,1.55E+12,-0.8996124,6.731674,9.70636,0.5539398,-0.011657715,-0.02406311,10.60212239,76.11342096,0
22-02-2019 4.47,1.55E+12,1.0540466,3.3462677,13.747772,-0.15446472,-0.12776184,-0.02192688,10.60212239,76.11342096,0
22-02-2019 4.47,1.55E+12,-1.5652008,6.41803,10.367157,0.39733887,0.10765076,-0.003814697,10.60212239,76.11342096,0
22-02-2019 4.47,1.55E+12,2.0787659,3.0350342,16.611237,-0.123565674,-0.21725464,-0.01020813,10.60212239,76.11342096,0
22-02-2019 4.47,1.55E+12,-2.482193,7.3541718,3.5149536,0.6551361,0.21525574,-0.067733765,10.60212239,76.11342096,0
22-02-2019 4.47,1.55E+12,4.0539856,2.62323,10.910645,-0.29933167,-0.35360718,-0.005950928,10.60212239,76.11342096,0
22-02-2019 4.47,1.55E+12,-3.8205414,5.5465393,5.9450684,0.2237091,0.26106262,-0.13165283,10.60212239,76.11342096,0
22-02-2019 4.47,1.55E+12,5.418686,7.8641357,4.302643,0.14060974,-0.38237,0.039855957,10.60212239,76.11342096,0
22-02-2019 4.47,1.55E+12,-1.7184296,5.5178223,8.707977,-0.14700317,0.33242798,-0.16999817,10.60212239,76.11342096,0
22-02-2019 4.47,1.55E+12,3.759491,7.5911865,9.533981,-0.067108154,-0.2140503,0.006835938,10.60212239,76.11342096,0
22-02-2019 4.47,1.55E+12,0.3070526,5.6207733,8.358429,-0.17576599,0.33668518,-0.10928345,10.60212239,76.11342096,0
22-02-2019 4.47,1.55E+12,1.877655,5.4124756,9.17485,-0.052200317,-0.03614807,-0.061340332,10.60212239,76.11342096,0
22-02-2019 4.47,1.55E+12,1.8321686,12.250305,-0.65335083,0.09907532,0.1385498,-0.08052063,10.60212239,76.11342096,0
22-02-2019 4.47,1.55E+12,-0.047286987,3.8227234,9.976913,-0.651947,0.039474487,-0.11566162,10.60212239,76.11342096,0
22-02-2019 4.47,1.55E+12,2.5983124,12.221573,-1.1848602,0.014907837,-0.03189087,-0.041107178,10.60212239,76.11342096,0
22-02-2019 4.47,1.55E+12,-1.2180481,7.351776,3.2420197,-0.39840698,0.14173889,-0.14549255,10.60212239,76.11342096,0
22-02-2019 4.47,1.55E+12,2.387619,7.2224884,10.5108185,-0.2982788,-0.21192932,-0.07624817,10.60212239,76.11342096,0
22-02-2019 4.47,1.55E+12,-1.8572998,5.1131897,3.6514282,0.0234375,0.24720764,-0.10394287,10.60212239,76.11342096,0
22-02-2019 4.47,1.55E+12,0.15861511,4.909683,8.968948,0.1725769,-0.1671753,-0.0549469,10.60212239,76.11342096,0
22-02-2019 4.47,1.55E+12,-1.5269012,1.0310822,16.46759,-0.26737976,-0.013778687,-0.09436035,10.60212239,76.11342096,0
22-02-2019 4.47,1.55E+12,-2.8413086,6.5832367,5.6817017,0.60614014,-0.070236206,0.00151062,10.60212239,76.11342096,0
22-02-2019 4.47,1.55E+12,0.6661835,1.2633209,17.21936,-0.32383728,-0.30673218,-0.09861755,10.60212239,76.11342096,0
22-02-2019 4.47,1.55E+12,-4.2323456,6.3845215,3.4191895,0.6402283,0.027755737,-0.0783844,10.60212239,76.11342096,0
22-02-2019 4.47,1.55E+12,1.556839,-0.010391235,12.452515,-0.32809448,-0.37809753,0.070755005,10.60212239,76.11342096,0
22-02-2019 4.47,1.55E+12,-4.522049,10.861679,-0.12663269,0.51878357,0.053329468,-0.013397217,10.60212239,76.11342096,0
22-02-2019 4.47,1.55E+12,1.4131775,6.090027,8.643341,-0.44207764,-0.34295654,0.07182312,10.60212239,76.11342096,0
22-02-2019 4.47,1.55E+12,-3.2507172,6.6861877,7.0368195,-0.15126038,-0.03189087,-0.08370972,10.60212239,76.11342096,0
22-02-2019 4.47,1.55E+12,-0.46148682,6.046936,9.907471,-0.12677002,-0.25559998,-0.17106628,10.60212239,76.11342096,0
22-02-2019 4.47,1.55E+12,-2.786255,7.6701965,5.4327087,-0.06817627,-0.12243652,-0.15509033,10.60212239,76.11342096,0
22-02-2019 4.47,1.55E+12,-0.31063843,4.390152,9.940994,-0.3259735,-0.25346375,-0.11672974,10.60212239,76.11342096,0
22-02-2019 4.47,1.55E+12,-2.8916016,10.935898,2.1119537,-0.039413452,-0.16931152,-0.14337158,10.60212239,76.11342096,0
22-02-2019 4.47,1.55E+12,-1.8620911,3.9927063,13.101334,-0.5784302,-0.28222656,-0.027252197,10.60212239,76.11342096,0
22-02-2019 4.47,1.55E+12,-1.3377533,11.661331,-1.6086426,0.08628845,-0.32270813,0.016418457,10.60212239,76.11342096,0
22-02-2019 4.47,1.55E+12,-3.2052307,5.395706,3.9530945,-0.527298,-0.15119934,-0.08370972,10.60212239,76.11342096,0
22-02-2019 4.47,1.55E+12,0.6063385,10.725204,5.746353,-0.5049286,-0.497406,0.029205322,10.60212239,76.11342096,0
22-02-2019 4.47,1.55E+12,-4.4454346,6.204956,6.6537476,-0.255661,0.07356262,-0.06985474,10.60212239,76.11342096,0
22-02-2019 4.47,1.55E+12,-0.3537445,13.330093,-0.3253479,0.008529663,-0.5378876,0.07394409,10.60212239,76.11342096,0
22-02-2019 4.47,1.55E+12,-3.08313,5.8937073,8.643341,-0.56884766,-0.1362915,-0.0357666,10.60212239,76.11342096,0
22-02-2019 4.47,1.55E+12,-1.1174927,11.508102,-3.4186554,-0.15872192,-0.38981628,0.07608032,10.60212239,76.11342096,0
22-02-2019 4.47,1.55E+12,-3.2243958,5.5681,9.7087555,-0.69454956,-0.1831665,-6.26E-04,10.60212239,76.11342096,0
22-02-2019 4.47,1.55E+12,-1.5316925,12.621414,-0.45463562,-0.19174194,-0.48675537,0.07608032,10.60212239,76.11342096,0
22-02-2019 4.47,1.55E+12,-5.158905,3.61203,9.25386,-0.7265167,-0.12136841,-0.025115967,10.60212239,76.11342096,0
22-02-2019 4.47,1.55E+12,1.0779877,14.208771,-2.4897003,-0.13528442,-0.6273804,0.13360596,10.60212239,76.11342096,0
22-02-2019 4.47,1.55E+12,-7.0742645,4.201004,2.0664673,-0.7350311,0.15666199,-0.11566162,10.60212239,76.11342096,0
22-02-2019 4.47,1.55E+12,5.430649,15.341232,-2.6309662,-0.6551361,-0.8180542,0.15597534,10.60212239,76.11342096,0
22-02-2019 4.47,1.55E+12,-8.5251465,13.485718,-7.2565613,-0.19067383,0.55081177,-0.23071289,10.60212239,76.11342096,0
22-02-2019 4.47,1.55E+12,8.775345,10.366074,6.792618,-1.1675262,-0.95121765,0.07821655,10.60212239,76.11342096,0
22-02-2019 4.47,1.55E+12,-10.591354,9.250381,-1.4218903,-0.15553284,0.85653687,-0.24882507,10.60212239,76.11342096,0
22-02-2019 4.47,1.55E+12,7.4537506,7.3014984,5.7056427,-0.78297424,-0.9671936,0.12614441,10.60212239,76.11342096,0
22-02-2019 4.47,1.55E+12,-8.824432,9.398819,-0.31576538,0.090545654,0.70207214,-0.23498535,10.60212239,76.11342096,0
22-02-2019 4.47,1.55E+12,5.394745,4.2656403,12.696716,-0.49853516,-0.8042145,0.10697937,10.60212239,76.11342096,0
22-02-2019 4.47,1.55E+12,-5.2211456,9.224045,-4.021988,0.5219879,0.53163147,-0.079452515,10.60212239,76.11342096,0
22-02-2019 4.47,1.55E+12,0.8601227,-0.015182495,19.527374,-0.3952179,-0.5613251,0.07394409,10.60212239,76.11342096,0
22-02-2019 4.47,1.55E+12,-2.4558563,8.1514435,4.4630585,0.654068,0.23548889,-0.056015015,10.60212239,76.11342096,0
22-02-2019 4.47,1.55E+12,1.4538879,0.082977295,19.759613,-0.1257019,-0.2342987,-0.046432495,10.60212239,76.11342096,0
22-02-2019 4.47,1.55E+12,0.14186096,10.370865,3.4072113,0.90974426,0.15133667,-0.09010315,10.60212239,76.11342096,0
22-02-2019 4.47,1.55E+12,-0.08558655,-4.0518036,20.434784,0.022369385,-0.04360962,-0.11566162,10.60212239,76.11342096,0
22-02-2019 4.47,1.55E+12,3.0412445,4.5194397,11.162033,0.9246521,-0.09580994,-0.038970947,10.60212239,76.11342096,0
22-02-2019 4.47,1.55E+12,-1.0336914,3.9352417,11.973663,0.89907837,0.2631836,-0.079452515,10.60212239,76.11342096,0
22-02-2019 4.47,1.55E+12,4.4298706,0.83236694,13.707077,0.15232849,-0.32484436,0.020690918,10.60212239,76.11342096,0
22-02-2019 4.47,1.55E+12,-5.0846863,6.944763,7.3097687,1.0791168,0.37609863,-0.0549469,10.60212239,76.11342096,0
22-02-2019 4.47,1.55E+12,6.031601,-3.314392,25.36444,-0.6316986,-0.7072754,0.15171814,10.60212239,76.11342096,0
22-02-2019 4.47,1.55E+12,-7.3232574,10.334946,2.5357208,1.2271881,0.46984863,0.02281189,10.60212239,76.11342096,0
22-02-2019 4.47,1.55E+12,6.359604,-0.46768188,20.592789,-0.74993896,-0.8830414,0.18687439,10.60212239,76.11342096,0
22-02-2019 4.47,1.55E+12,-8.8172455,6.676605,2.006607,0.74461365,0.39421082,-0.0592041,10.60212239,76.11342096,0
22-02-2019 4.47,1.55E+12,6.4601593,-2.5290985,20.779541,-0.5155792,-0.9586792,0.20497131,10.60212239,76.11342096,0
22-02-2019 4.47,1.55E+12,-10.8259735,13.526413,-4.4864655,1.3283844,0.3345642,-0.007003784,10.60212239,76.11342096,0
22-02-2019 4.47,1.55E+12,4.44664,-3.807602,22.105927,-1.2815094,-1.1014252,0.19325256,10.60212239,76.11342096,0
22-02-2019 4.47,1.55E+12,-8.288132,13.224747,-9.310776,0.8170624,0.1577301,0.07608032,10.60222701,76.11298803,8.16
22-02-2019 4.47,1.55E+12,0.9534912,-1.4493103,18.215347,-1.2399597,-0.84788513,0.09951782,10.60222701,76.11298803,8.16
22-02-2019 4.47,1.55E+12,-8.336014,12.015686,-1.3404846,0.38349915,-0.19914246,0.082473755,10.60222701,76.11298803,8.16
22-02-2019 4.47,1.55E+12,0.75956726,2.8578644,13.757355,-0.607193,-0.7115326,0.17941284,10.60222701,76.11298803,8.16
22-02-2019 4.47,1.55E+12,-7.1341248,11.295029,-3.1983795,0.44421387,-0.23641968,0.051574707,10.60222701,76.11298803,8.16
22-02-2019 4.47,1.55E+12,0.22087097,2.4268951,10.580246,-0.61465454,-0.64868164,0.08779907,10.60222701,76.11298803,8.16
22-02-2019 4.47,1.55E+12,-6.688797,10.607895,2.3968658,0.13848877,-0.24388123,0.06755066,10.60222701,76.11298803,8.16
22-02-2019 4.47,1.55E+12,1.0348969,8.706894,3.3832703,-0.13954163,-0.47717285,0.08886719,10.60222701,76.11298803,8.16
22-02-2019 4.47,1.55E+12,-6.2865753,3.9903107,9.84523,-0.24394226,-0.21298218,0.006835938,10.60222701,76.11298803,8.16
22-02-2019 4.47,1.55E+12,-0.09037781,1.5745697,14.84671,-0.2311554,-0.42497253,0.13146973,10.60222701,76.11298803,8.16
22-02-2019 4.47,1.55E+12,-4.5172577,7.370926,7.8867645,0.42930603,-0.093673706,0.06542969,10.60222701,76.11298803,8.16
22-02-2019 4.47,1.55E+12,1.1977081,6.81308,8.2435,0.21624756,-0.3866272,-0.014465332,10.60222701,76.11298803,8.16
22-02-2019 4.47,1.55E+12,-5.5946503,2.0869293,6.792618,0.36857605,0.023498535,-0.02192688,10.60222701,76.11298803,8.16
22-02-2019 4.47,1.55E+12,5.859207,4.311142,11.954514,0.16297913,-0.5730438,0.16343689,10.60222701,76.11298803,8.16
22-02-2019 4.47,1.55E+12,-7.059906,2.0964966,9.799728,0.525177,0.37823486,-0.079452515,10.60222701,76.11298803,8.16
22-02-2019 4.47,1.55E+12,6.0052643,6.039749,11.621719,0.23329163,-0.6412201,0.1250763,10.60222701,76.11298803,8.16
22-02-2019 4.47,1.55E+12,-4.5842896,0.4947815,9.984085,0.20452881,0.41764832,-0.11140442,10.60222701,76.11298803,8.16
22-02-2019 4.47,1.55E+12,6.309326,3.3702087,8.983307,0.2652588,-0.43455505,0.11442566,10.60222701,76.11298803,8.16
22-02-2019 4.47,1.55E+12,-5.1301727,4.378174,10.968109,0.48362732,0.42297363,-0.112472534,10.60222701,76.11298803,8.16
22-02-2019 4.47,1.55E+12,7.403473,3.8969421,11.736649,0.11291504,-0.50379944,0.09526062,10.60222701,76.11298803,8.16
22-02-2019 4.47,1.55E+12,-3.3512878,7.6941376,6.0240784,0.45593262,0.60194397,-0.13804626,10.60222701,76.11298803,8.16
22-02-2019 4.47,1.55E+12,5.5982513,4.699005,16.015076,-0.41651917,-0.44734192,-0.01234436,10.60222701,76.11298803,8.16
22-02-2019 4.47,1.55E+12,-3.2004395,5.398102,9.52919,-0.19494629,0.5699768,-0.17318726,10.60222701,76.11298803,8.16
22-02-2019 4.47,1.55E+12,7.65007,13.622192,5.667343,0.56140137,-0.39727783,-0.011276245,10.60222701,76.11298803,8.16
22-02-2019 4.47,1.55E+12,-1.4359131,3.0015106,4.8221893,-0.18534851,0.55400085,-0.28611755,10.60222701,76.11298803,8.16
22-02-2019 4.47,1.55E+12,7.4058685,8.093979,-2.2095795,0.36431885,-0.23002625,0.016418457,10.60222701,76.11298803,8.16
22-02-2019 4.47,1.55E+12,-0.9067993,4.75885,15.145981,-0.116119385,0.43255615,-0.22006226,10.60222701,76.11298803,8.16
22-02-2019 4.47,1.55E+12,4.4562073,5.398102,4.4463043,0.23861694,-0.10432434,-0.065597534,10.60222701,76.11298803,8.16
22-02-2019 4.47,1.55E+12,-1.9626465,4.9934845,15.337524,0.10652161,0.37716675,-0.20088196,10.60222701,76.11298803,8.16
22-02-2019 4.47,1.55E+12,4.384384,-1.3200226,18.24887,-0.38775635,-0.20872498,-0.08584595,10.60222701,76.11298803,8.16
22-02-2019 4.47,1.55E+12,1.8106232,5.912857,9.763824,0.1533966,0.53163147,-0.14974976,10.60222701,76.11298803,8.16
22-02-2019 4.47,1.55E+12,8.3467865,21.745712,-8.997147,1.0982819,0.004333496,0.008972168,10.60222701,76.11298803,8.16
22-02-2019 4.47,1.55E+12,2.7850647,-13.635803,29.513596,-1.1515503,0.52523804,-0.3841095,10.60222701,76.11298803,8.16
22-02-2019 4.47,1.55E+12,9.098572,12.738724,-2.3987274,2.0676727,0.16517639,0.15597534,10.60222701,76.11298803,8.16
22-02-2019 4.47,1.55E+12,-1.7423706,-8.639099,25.266281,0.25672913,0.87997437,-0.22113037,10.60222701,76.11298803,8.16
22-02-2019 4.47,1.55E+12,12.809586,5.3693695,15.722992,1.1121368,-0.4111328,0.02494812,10.60222701,76.11298803,8.16
22-02-2019 4.47,1.55E+12,-4.531616,-3.8890076,22.405212,0.8213196,1.3082123,-0.42140198,10.60222701,76.11298803,8.16
22-02-2019 4.47,1.55E+12,13.827118,5.335861,16.728561,0.71372986,-0.6369629,0.18899536,10.60222701,76.11298803,8.16
22-02-2019 4.47,1.55E+12,-2.7575226,4.725342,14.482788,0.56565857,1.2155304,-0.33085632,10.60222701,76.11298803,8.16
22-02-2019 4.47,1.55E+12,13.106461,5.802719,14.123657,0.2034607,-0.57836914,0.117630005,10.60222701,76.11298803,8.16
22-02-2019 4.47,1.55E+12,-5.127777,7.9455414,9.871567,0.57844543,1.2027435,-0.2584076,10.60222701,76.11298803,8.16
22-02-2019 4.47,1.55E+12,13.2956085,0.41098022,21.421188,-0.26631165,-0.8095398,0.10910034,10.60222701,76.11298803,8.16
22-02-2019 4.47,1.55E+12,-10.845139,6.2743835,2.9211884,1.2058868,1.1526794,-0.3564148,10.60222701,76.11298803,8.16
22-02-2019 4.47,1.55E+12,13.24054,0.7365875,25.85286,-0.5209198,-1.3038177,0.23800659,10.60222701,76.11298803,8.16
22-02-2019 4.47,1.55E+12,-10.914566,2.9823608,2.4830475,1.0215912,0.9332428,-0.2232666,10.60222701,76.11298803,8.16
22-02-2019 4.47,1.55E+12,11.952454,4.4835205,16.201828,-0.03302002,-1.2686615,0.20497131,10.60222701,76.11298803,8.16
22-02-2019 4.47,1.55E+12,-12.47319,-5.567337,13.5394745,0.5794983,0.83735657,-0.23284912,10.60222701,76.11298803,8.16
22-02-2019 4.47,1.55E+12,13.405731,2.6399841,15.392593,0.6828308,-1.2526855,0.3956604,10.60222701,76.11298803,8.16
22-02-2019 4.47,1.55E+12,-13.617615,-0.8483734,12.837982,1.2026825,0.92152405,-0.18811035,10.60222701,76.11298803,8.16
22-02-2019 4.47,1.55E+12,12.096115,-3.6878967,14.535461,0.083099365,-1.2388306,0.23905945,10.60222701,76.11298803,8.16
22-02-2019 4.47,1.55E+12,-13.035828,3.777237,12.689529,1.1941681,0.85440063,-0.1210022,10.60222701,76.11298803,8.16
22-02-2019 4.47,1.55E+12,13.20462,0.9568634,20.353378,-0.07989502,-1.2910309,0.3455963,10.60222701,76.11298803,8.16
22-02-2019 4.47,1.55E+12,-9.7821045,9.841736,-2.2071838,0.86073303,0.93003845,-0.18278503,10.60222701,76.11298803,8.16
22-02-2019 4.47,1.55E+12,10.961258,9.58078,8.10704,-0.4229126,-1.1046143,0.18260193,10.60222701,76.11298803,8.16
22-02-2019 4.47,1.55E+12,-7.143692,-1.851532,16.031845,-1.0972137,0.763855,-0.2541504,10.60222701,76.11298803,8.16
22-02-2019 4.47,1.55E+12,13.774445,26.12471,-14.951523,1.9994965,-0.7104645,0.27954102,10.60222701,76.11298803,8.16
22-02-2019 4.47,1.55E+12,-7.7039337,-8.083649,22.086777,-1.2740479,0.8671875,-0.46295166,10.60222701,76.11298803,8.16
22-02-2019 4.47,1.55E+12,11.282074,4.6535034,14.425339,0.58695984,-0.7157898,0.19752502,10.60222701,76.11298803,8.16
22-02-2019 4.47,1.55E+12,-3.052002,3.7915955,4.913162,0.15127563,0.87783813,-0.13165283,10.60222701,76.11298803,8.16
22-02-2019 4.47,1.55E+12,8.473679,13.837662,2.3250427,0.45167542,-0.47717285,0.00151062,10.60222701,76.11298803,8.16
22-02-2019 4.47,1.55E+12,-3.1836853,-5.155533,20.415619,-0.56565857,0.6392212,-0.3841095,10.60222701,76.11298803,8.16
22-02-2019 4.47,1.55E+12,7.0706787,7.9024353,7.7886047,1.003479,-0.2566681,0.11230469,10.60222701,76.11298803,8.16
22-02-2019 4.47,1.55E+12,-2.5204926,4.7133636,10.185196,0.50387573,0.5433502,-0.16467285,10.60222701,76.11298803,8.16
22-02-2019 4.47,1.55E+12,3.9510345,4.8354645,12.691925,-0.09161377,-0.28755188,-0.12205505,10.60222701,76.11298803,8.16
22-02-2019 4.47,1.55E+12,0.44831848,5.881729,11.403854,-0.10333252,0.40060425,-0.1614685,10.60222701,76.11298803,8.16
22-02-2019 4.47,1.55E+12,5.667679,7.9599,8.767838,0.27163696,-0.15545654,-0.0741272,10.60222701,76.11298803,8.16
22-02-2019 4.47,1.55E+12,-1.7663269,6.307907,5.212448,0.27163696,0.4442749,-0.26586914,10.60222701,76.11298803,8.16
22-02-2019 4.47,1.55E+12,4.671692,3.375,13.4796295,-0.16511536,-0.3450775,-0.020858765,10.60222701,76.11298803,8.16
22-02-2019 4.47,1.55E+12,0.13467407,7.976654,3.3952484,0.47190857,0.3100586,-0.10394287,10.60222701,76.11298803,8.16
22-02-2019 4.47,1.55E+12,2.8784332,8.041306,5.2842712,-0.16192627,-0.15759277,-0.056015015,10.60222701,76.11298803,8.16
22-02-2019 4.47,1.55E+12,-0.9211731,-3.563385,21.337387,-0.48043823,0.16305542,-0.15934753,10.60222701,76.11298803,8.16
22-02-2019 4.47,1.55E+12,6.5702972,8.797867,7.417511,0.9768524,-0.16931152,0.08673096,10.60222701,76.11298803,8.16
22-02-2019 4.47,1.55E+12,-1.546051,3.4037323,13.565811,0.30360413,0.47943115,-0.20301819,10.60222701,76.11298803,8.16
22-02-2019 4.47,1.55E+12,6.3931274,4.6175995,6.572357,0.2780304,-0.30140686,-0.005950928,10.60222701,76.11298803,8.16
22-02-2019 4.47,1.55E+12,2.3181915,6.829834,13.862701,0.078826904,0.42190552,-0.13591003,10.60222701,76.11298803,8.16
22-02-2019 4.47,1.55E+12,5.976532,9.312622,1.3003235,0.4463501,-0.02230835,-0.001678467,10.60222701,76.11298803,8.16
22-02-2019 4.47,1.55E+12,1.65979,7.5624695,12.610535,-0.022369385,0.46559143,-0.17851257,10.60222701,76.11298803,8.16
22-02-2019 4.47,1.55E+12,4.252701,4.019043,13.189926,-0.30360413,-0.09687805,0.040924072,10.60222701,76.11298803,8.16
22-02-2019 4.47,1.55E+12,5.6150055,9.748367,6.8835907,-0.17790222,0.37716675,-0.07305908,10.60222701,76.11298803,8.16
22-02-2019 4.47,1.55E+12,2.8209686,19.016327,-0.67489624,0.33343506,0.17582703,-0.053878784,10.60222701,76.11298803,8.16
22-02-2019 4.47,1.55E+12,5.442627,-1.0901794,17.985504,-1.6074829,0.23123169,-0.16467285,10.60222701,76.11298803,8.16
22-02-2019 4.47,1.55E+12,6.4050903,23.708954,-10.938843,1.6053619,0.23016357,0.11230469,10.60222701,76.11298803,8.16
22-02-2019 4.47,1.55E+12,6.1680603,-1.2075043,19.680603,-1.5414429,0.38781738,-0.15402222,10.60222701,76.11298803,8.16
22-02-2019 4.47,1.55E+12,6.2638397,17.048294,-7.421753,1.1739197,0.3196411,0.010040283,10.60222701,76.11298803,8.16
22-02-2019 4.47,1.55E+12,4.9901123,-2.5027618,20.188171,-0.99282837,0.49221802,-0.17425537,10.60222701,76.11298803,8.16
22-02-2019 4.47,1.55E+12,6.34523,7.2033386,7.520462,0.60614014,0.18649292,0.12721252,10.60222701,76.11298803,8.16
22-02-2019 4.47,1.55E+12,3.572754,3.8299103,14.442093,0.1491394,0.6498718,-0.062408447,10.60222701,76.11298803,8.16
22-02-2019 4.47,1.55E+12,4.5471954,3.2265625,16.343094,-0.09907532,0.09060669,0.002578735,10.60222701,76.11298803,8.16
22-02-2019 4.47,1.55E+12,2.5623932,1.5985107,18.58406,0.21092224,0.5433502,-0.14974976,10.60222701,76.11298803,8.16
22-02-2019 4.47,1.55E+12,6.972519,5.3286743,7.441452,0.70414734,6.10E-05,-0.025115967,10.60222701,76.11298803,8.16
22-02-2019 4.47,1.55E+12,1.9183502,3.4348602,9.940994,0.58802795,0.72550964,-0.1210022,10.60222701,76.11298803,8.16
22-02-2019 4.47,1.55E+12,7.4561462,4.591263,17.276825,0.03515625,-0.19488525,0.023880005,10.60222701,76.11298803,8.16
22-02-2019 4.47,1.55E+12,2.4450836,6.738861,-1.1609192,0.40586853,0.7606659,-0.18917847,10.60222701,76.11298803,8.16
22-02-2019 4.47,1.55E+12,5.3540344,10.720413,6.4191284,-0.22477722,-0.15545654,-0.020858765,10.60222701,76.11298803,8.16
22-02-2019 4.47,1.55E+12,3.2854462,-2.8259735,15.57933,-1.0397034,0.48368835,-0.10821533,10.60222701,76.11298803,8.16
22-02-2019 4.47,1.55E+12,5.45459,15.614166,-3.741867,1.2847137,0.16731262,0.012161255,10.60222701,76.11298803,8.16
22-02-2019 4.47,1.55E+12,3.1633453,0.013549805,15.639191,-0.3952179,0.37716675,-0.19023132,10.60222701,76.11298803,8.16
22-02-2019 4.47,1.55E+12,3.0125122,-2.9887848,10.61377,-0.07243347,0.14920044,-0.001678467,10.60222701,76.11298803,8.16
22-02-2019 4.47,1.55E+12,5.2319336,17.110535,0.2348938,0.7158661,0.283432,-0.01020813,10.60222701,76.11298803,8.16
22-02-2019 4.47,1.55E+12,-1.8070221,-4.7437286,15.392593,-1.2879028,0.27490234,-0.20515442,10.60222701,76.11298803,8.16
22-02-2019 4.47,1.55E+12,2.7252045,16.02118,0.28277588,0.6871033,-0.011657715,4.43E-04,10.60222701,76.11298803,8.16
22-02-2019 4.47,1.55E+12,-3.870819,-3.8147888,20.69336,-1.2719269,0.12683105,-0.11779785,10.60222701,76.11298803,8.16
22-02-2019 4.47,1.55E+12,2.8137817,18.331589,-9.521469,0.6412964,-0.2896881,0.05583191,10.60222701,76.11298803,8.16
22-02-2019 4.47,1.55E+12,-3.9618073,7.6893616,0.55093384,-0.9534149,0.14920044,-0.11886597,10.60222701,76.11298803,8.16
22-02-2019 4.47,1.55E+12,5.8639984,10.100311,2.9140167,-1.2367706,-0.44522095,0.06222534,10.60222701,76.11298803,8.16
22-02-2019 4.47,1.55E+12,-4.818924,16.514389,-4.010025,0.019180298,0.52311707,-0.12205505,10.60222701,76.11298803,8.16
22-02-2019 4.47,1.55E+12,6.206375,5.5393677,11.68158,-1.5403748,-0.52937317,-0.02192688,10.60222701,76.11298803,8.16
22-02-2019 4.47,1.55E+12,-8.455719,8.908005,5.3872223,0.12783813,0.66052246,-0.19876099,10.60222701,76.11298803,8.16
22-02-2019 4.47,1.55E+12,8.634094,9.813019,5.861267,-0.54115295,-0.68595886,0.13893127,10.60222701,76.11298803,8.16
22-02-2019 4.47,1.55E+12,-7.3783264,12.427475,-5.362747,0.396286,0.7564087,-0.17532349,10.60222701,76.11298803,8.16
22-02-2019 4.47,1.55E+12,8.674789,11.783447,2.7679596,-0.5347595,-0.733902,0.09738159,10.60222701,76.11298803,8.16
22-02-2019 4.47,1.55E+12,-8.934555,5.553726,4.750366,-0.5805664,0.747879,-0.18597412,10.60222701,76.11298803,8.16
22-02-2019 4.47,1.55E+12,6.0842743,17.024353,0.08166504,-0.26205444,-0.7296448,0.20391846,10.60222701,76.11298803,8.16
22-02-2019 4.47,1.55E+12,-13.720566,-1.5211334,32.99237,-1.6149445,0.46452332,-0.3479004,10.60222701,76.11298803,8.16
22-02-2019 4.47,1.55E+12,5.763443,14.448181,-11.542175,0.37071228,-0.8670654,0.26675415,10.60222701,76.11298803,8.16
22-02-2019 4.47,1.55E+12,-8.661621,8.963074,8.14534,-0.58802795,0.27490234,-0.12312317,10.60222701,76.11298803,8.16
22-02-2019 4.47,1.55E+12,1.0564423,3.758072,2.3753204,-0.3717804,-0.907547,0.20178223,10.60222701,76.11298803,8.16
22-02-2019 4.47,1.55E+12,-5.0751038,8.517746,-3.591034,0.6263733,0.18754578,0.16981506,10.60222701,76.11298803,8.16
22-02-2019 4.47,1.55E+12,-6.7223206,7.844986,2.923584,0.747818,-0.84469604,0.2891388,10.60222701,76.11298803,8.16
22-02-2019 4.47,1.55E+12,-8.235458,-19.798477,29.46811,-1.7523651,-0.34188843,-0.10501099,10.60222701,76.11298803,8.16
22-02-2019 4.47,1.55E+12,-4.0623627,25.595596,-17.163757,2.3776703,-0.82444763,0.422287,10.60222701,76.11298803,8.16
22-02-2019 4.47,1.55E+12,-12.226593,-14.933456,29.029968,-3.0690308,-0.22790527,-0.24349976,10.60222701,76.11298803,8.16
22-02-2019 4.47,1.55E+12,-0.6697693,26.30188,-18.087921,0.9576721,-1.1951599,0.26463318,10.60222701,76.11298803,8.16
22-02-2019 4.47,1.55E+12,-8.249817,8.675766,-3.3013306,-1.4412994,0.016052246,-0.09968567,10.60222701,76.11298803,8.16
22-02-2019 4.47,1.55E+12,-2.293045,3.7173767,9.931412,-1.2378387,-1.0982208,0.14744568,10.60222701,76.11298803,8.16
22-02-2019 4.47,1.55E+12,-8.022369,4.8043365,5.2651215,0.09907532,0.1577301,-0.0315094,10.60222701,76.11298803,8.16
22-02-2019 4.47,1.55E+12,-2.6425934,8.975037,4.005768,0.17897034,-0.83403015,0.18153381,10.60222701,76.11298803,8.16
22-02-2019 4.47,1.55E+12,-7.4573364,3.7891998,10.632919,-0.5336914,-0.06278992,-0.15614319,10.60222701,76.11298803,8.16
22-02-2019 4.47,1.55E+12,-0.80384827,1.1651611,9.699173,-0.3334198,-0.7381592,0.12295532,10.60222701,76.11298803,8.16
22-02-2019 4.47,1.55E+12,-1.8836365,14.5008545,-7.325989,0.86605835,0.02670288,0.035598755,10.60222701,76.11298803,8.16
22-02-2019 4.47,1.55E+12,-1.2539673,-5.3231354,22.067627,-0.88949585,-0.44522095,0.04838562,10.60222701,76.11298803,8.16
22-02-2019 4.47,1.55E+12,-0.557251,10.342133,-0.45703125,1.2495575,0.044799805,0.11016846,10.60222701,76.11298803,8.16
22-02-2019 4.47,1.55E+12,0.77153015,0.27929688,17.212189,-0.0234375,-0.12776184,0.05796814,10.60222701,76.11298803,8.16
22-02-2019 4.47,1.55E+12,1.9159698,6.89209,9.742279,0.45806885,-0.021240234,0.070755005,10.60222701,76.11298803,8.16
22-02-2019 4.47,1.55E+12,3.06279,4.552948,12.021561,-0.029830933,0.14920044,0.012161255,10.60222701,76.11298803,8.16
22-02-2019 4.47,1.55E+12,2.0787659,11.527267,-0.02368164,0.621048,0.15026855,0.037734985,10.60222701,76.11298803,8.16
22-02-2019 4.47,1.55E+12,4.0659485,3.4252777,17.336685,-0.36857605,0.10127258,-0.013397217,10.60222701,76.11298803,8.16
22-02-2019 4.47,1.55E+12,2.9478607,8.335785,2.8158417,0.54008484,0.22909546,0.032409668,10.60222701,76.11298803,8.16
22-02-2019 4.47,1.55E+12,5.047577,8.120316,8.808533,-0.052200317,0.24081421,4.43E-04,10.60222701,76.11298803,8.16
22-02-2019 4.47,1.55E+12,0.27593994,6.573654,11.513977,-0.18748474,0.22483826,-0.03364563,10.60222701,76.11298803,8.16
22-02-2019 4.47,1.55E+12,6.474518,9.171371,-2.891922,-0.2599182,0.093811035,0.041992188,10.60222701,76.11298803,8.16
22-02-2019 4.47,1.55E+12,0.44352722,14.620575,2.9164124,-0.07243347,0.22483826,-0.051757812,10.60222701,76.11298803,8.16
22-02-2019 4.47,1.55E+12,5.406708,5.774002,4.7407837,-1.0546112,0.023498535,-0.01979065,10.60222701,76.11298803,8.16
22-02-2019 4.47,1.55E+12,-1.8764496,13.231934,-11.00827,0.28123474,0.55506897,-0.026184082,10.60222701,76.11298803,8.16
22-02-2019 4.47,1.55E+12,6.067505,1.7230072,18.95517,-1.0886993,-0.32910156,0.030273438,10.60222701,76.11298803,8.16
22-02-2019 4.47,1.55E+12,-6.3512115,-3.673523,14.473221,-0.17362976,0.7276459,-0.089035034,10.60222701,76.11298803,8.16
22-02-2019 4.47,1.55E+12,8.986038,15.937378,-3.23909,1.0919037,-0.35572815,0.28807068,10.60222701,76.11298803,8.16
22-02-2019 4.47,1.55E+12,-9.834778,-8.050125,26.482529,-1.6788483,0.6083374,-0.35002136,10.60222701,76.11298803,8.16
22-02-2019 4.47,1.55E+12,4.997299,14.757034,-4.7905273,0.82450867,-0.4335022,0.18899536,10.60222701,76.11298803,8.16
22-02-2019 4.47,1.55E+12,-1.6849213,10.073975,3.9578857,-0.31637573,0.25360107,-0.027252197,10.60222701,76.11298803,8.16
22-02-2019 4.47,1.55E+12,1.1043243,4.778,4.027313,-0.22903442,-0.24920654,-0.0357666,10.60222701,76.11298803,8.16
22-02-2019 4.47,1.55E+12,-5.0152435,-1.3990326,19.089233,-0.49427795,0.1065979,0.039855957,10.60222701,76.11298803,8.16
22-02-2019 4.47,1.55E+12,-3.9833527,11.922302,2.4830475,1.0066833,-0.4846344,0.25610352,10.60222701,76.11298803,8.16
22-02-2019 4.47,1.55E+12,-6.0112457,-5.06456,18.50505,-0.82025146,-0.14161682,0.003646851,10.60222701,76.11298803,8.16
22-02-2019 4.47,1.55E+12,-2.1613617,10.301437,5.9091644,1.1941681,-0.638031,0.26356506,10.60222701,76.11298803,8.16
22-02-2019 4.47,1.55E+12,-5.867584,-7.1379395,20.750809,-0.5997467,-0.023376465,-0.008071899,10.60222701,76.11298803,8.16
22-02-2019 4.47,1.55E+12,-0.56204224,17.230255,-8.5542145,1.8109436,-0.49635315,0.2710266,10.60222701,76.11298803,8.16
22-02-2019 4.47,1.55E+12,-3.2674866,-3.4891663,12.797272,-1.3741913,-0.117111206,-0.07199097,10.60222701,76.11298803,8.16
22-02-2019 4.47,1.55E+12,-1.2443848,12.293411,3.0959778,0.38136292,-0.39834595,0.09098816,10.60222701,76.11298803,8.16
22-02-2019 4.47,1.55E+12,-1.6442108,2.3909912,9.383148,-0.5763092,-0.058517456,0.020690918,10.60222701,76.11298803,8.16
22-02-2019 4.47,1.55E+12,-5.285797,6.2815704,14.418152,0.19174194,-0.11924744,0.00151062,10.60222701,76.11298803,8.16
22-02-2019 4.47,1.55E+12,0.6398468,-1.3296051,19.49385,-0.33129883,-0.35679626,0.080337524,10.60222701,76.11298803,8.16
22-02-2019 4.47,1.55E+12,1.3964233,18.685928,-16.024124,0.6444855,0.060791016,0.054779053,10.60222701,76.11298803,8.16
22-02-2019 4.47,1.55E+12,-0.34895325,12.997299,1.3577728,-0.9384918,-0.1639862,-0.12738037,10.60222701,76.11298803,8.16
22-02-2019 4.47,1.55E+12,-4.423889,-5.47876,15.703842,-1.4221344,-0.24601746,-0.08477783,10.60222701,76.11298803,8.16
22-02-2019 4.47,1.55E+12,5.368408,20.409744,-11.903702,1.7246704,-0.26411438,0.3019104,10.60237463,76.11257047,10.39
22-02-2019 4.47,1.55E+12,-6.9521637,-13.034851,26.164108,-0.8543396,0.09060669,-0.15827942,10.60237463,76.11257047,10.39
22-02-2019 4.47,1.55E+12,0.9534912,0.4181671,12.083801,0.98750305,-0.33016968,0.17301941,10.60237463,76.11257047,10.39
22-02-2019 4.47,1.55E+12,-3.8851929,4.256073,15.416534,1.0301056,-0.02017212,0.152771,10.60237463,76.11257047,10.39
22-02-2019 4.47,1.55E+12,1.161789,-0.4197998,20.135498,-0.09693909,-0.28329468,0.14212036,10.60237463,76.11257047,10.39
22-02-2019 4.47,1.55E+12,-3.8373108,5.110794,11.949722,0.9001465,0.1811676,0.10803223,10.60237463,76.11257047,10.39
22-02-2019 4.47,1.55E+12,5.181656,3.3965454,17.805939,0.104400635,-0.45799255,0.13572693,10.60237463,76.11257047,10.39
22-02-2019 4.47,1.55E+12,-4.9482117,10.830551,0.41685486,0.7030792,0.42297363,-0.051757812,10.60237463,76.11257047,10.39
22-02-2019 4.47,1.55E+12,6.5487366,8.601547,14.43251,-0.23754883,-0.6518707,0.19432068,10.60237463,76.11257047,10.39
22-02-2019 4.47,1.55E+12,-3.9618073,1.6918793,0.7041626,0.14060974,0.4315033,-0.07092285,10.60237463,76.11257047,10.39
22-02-2019 4.47,1.55E+12,7.1377106,13.212784,2.7583923,0.45167542,-0.52404785,0.19645691,10.60237463,76.11257047,10.39
22-02-2019 4.47,1.55E+12,-5.5084534,0.37745667,8.310547,-0.44528198,0.44215393,-0.07519531,10.60237463,76.11257047,10.39
22-02-2019 4.47,1.55E+12,7.33165,10.62944,9.098236,0.18855286,-0.5432129,0.18473816,10.60237463,76.11257047,10.39
22-02-2019 4.47,1.55E+12,-6.729492,-6.254471,21.323029,-0.48576355,0.5603943,-0.1060791,10.60237463,76.11257047,10.39
22-02-2019 4.47,1.55E+12,5.236725,-0.58740234,17.33429,0.6721802,-0.49954224,0.21243286,10.60237463,76.11257047,10.39
22-02-2019 4.47,1.55E+12,-3.3536682,12.772247,-4.9844666,1.4210663,0.38674927,0.08779907,10.60237463,76.11257047,10.39
22-02-2019 4.47,1.55E+12,4.089905,0.8706665,12.782913,-0.67111206,-0.48356628,-0.005950928,10.60237463,76.11257047,10.39
22-02-2019 4.47,1.55E+12,-3.988144,11.374039,-2.4442139,0.7105255,0.26957703,-0.07199097,10.60237463,76.11257047,10.39
22-02-2019 4.47,1.55E+12,2.8832245,-1.523529,20.092407,-1.0375671,-0.4697113,0.101638794,10.60237463,76.11257047,10.39
22-02-2019 4.47,1.55E+12,-8.692749,11.163345,1.903656,0.6508789,0.2163086,-0.027252197,10.60237463,76.11257047,10.39
22-02-2019 4.47,1.55E+12,0.78829956,-3.6304321,20.959106,-0.9736481,-0.69981384,0.08673096,10.60237463,76.11257047,10.39
22-02-2019 4.47,1.55E+12,-5.1181946,14.34523,-6.3252106,0.8735199,-0.08409119,0.08779907,10.60237463,76.11257047,10.39
22-02-2019 4.47,1.55E+12,-0.29388428,1.0885468,16.30957,-0.8969574,-0.5261688,0.10270691,10.60237463,76.11257047,10.39
22-02-2019 4.47,1.55E+12,-4.6944275,10.988571,-4.610962,0.4974823,-0.16078186,0.15916443,10.60237463,76.11257047,10.39
22-02-2019 4.47,1.55E+12,0.5057831,5.769211,5.7918396,-0.5496826,-0.368515,0.061172485,10.60237463,76.11257047,10.39
22-02-2019 4.47,1.55E+12,-5.1253815,2.841095,12.050278,-0.30892944,-0.11924744,-0.02192688,10.60237463,76.11257047,10.39
22-02-2019 4.47,1.55E+12,1.532898,6.39888,6.651367,0.2471466,-0.27583313,0.12188721,10.60237463,76.11257047,10.39
22-02-2019 4.47,1.55E+12,-4.787796,8.103546,4.630661,0.14381409,0.021377563,0.005767822,10.60237463,76.11257047,10.39
22-02-2019 4.47,1.55E+12,-0.23641968,-0.3791046,17.736511,-0.64234924,-0.37384033,0.023880005,10.60237463,76.11257047,10.39
22-02-2019 4.47,1.55E+12,-2.3097992,13.545578,-1.9701538,0.46446228,-0.0340271,0.09844971,10.60237463,76.11257047,10.39
22-02-2019 4.47,1.55E+12,-1.1486206,7.375717,9.256256,-0.53582764,-0.25239563,-0.042160034,10.60237463,76.11257047,10.39
22-02-2019 4.47,1.55E+12,-2.4989471,7.12912,5.4638367,-0.35473633,-0.20553589,-0.01234436,10.60237463,76.11257047,10.39
22-02-2019 4.47,1.55E+12,0.21607971,8.280731,7.1158295,0.11824036,-0.20021057,0.10697937,10.60237463,76.11257047,10.39
22-02-2019 4.47,1.55E+12,-1.9817963,6.283966,3.4311523,0.13848877,-0.22257996,0.03453064,10.60237463,76.11257047,10.39
22-02-2019 4.47,1.55E+12,-1.0576324,8.390854,5.267517,0.1491394,-0.22363281,0.019622803,10.60237463,76.11257047,10.39
22-02-2019 4.47,1.55E+12,-0.8445587,9.233612,-0.1529541,-0.08735657,-0.20339966,0.0899353,10.60237463,76.11257047,10.39
22-02-2019 4.47,1.55E+12,-0.9618683,5.4316254,4.6929016,-0.46232605,-0.11604309,-0.011276245,10.60237463,76.11257047,10.39
22-02-2019 4.47,1.55E+12,-3.8923645,4.4763336,11.60257,-0.2737732,-0.24707031,0.051574707,10.60237463,76.11257047,10.39
22-02-2019 4.47,1.55E+12,-0.8373718,-0.45092773,16.28563,-0.21838379,-0.28755188,0.1453247,10.60237463,76.11257047,10.39
22-02-2019 4.47,1.55E+12,-5.6138,11.261505,-4.0794525,0.98643494,-0.14907837,0.16555786,10.60237463,76.11257047,10.39
22-02-2019 4.47,1.55E+12,-2.2571259,-5.4308624,24.102692,-1.3177338,-0.5687866,0.026016235,10.60237463,76.11257047,10.39
22-02-2019 4.47,1.55E+12,-3.3824005,13.246292,-11.056152,0.6998749,-0.2374878,0.20285034,10.60237463,76.11257047,10.39
22-02-2019 4.47,1.55E+12,0.80744934,10.145813,-0.014099121,-0.57310486,-0.4185791,0.053710938,10.60237463,76.11257047,10.39
22-02-2019 4.47,1.55E+12,-7.191574,-4.9999084,24.030869,-0.7787018,-0.15013123,-0.058151245,10.60237463,76.11257047,10.39
22-02-2019 4.47,1.55E+12,3.711609,4.378174,11.50441,0.89907837,-0.44734192,0.3487854,10.60237463,76.11257047,10.39
22-02-2019 4.47,1.55E+12,-9.604935,2.3431091,13.280899,0.9022827,0.15666199,0.14212036,10.60237463,76.11257047,10.39
22-02-2019 4.47,1.55E+12,4.2790375,-5.665497,26.233536,-0.31425476,-0.88090515,0.18048096,10.60237463,76.11257047,10.39
22-02-2019 4.47,1.55E+12,-4.7303467,12.185669,-5.1472626,1.4785919,0.3068695,0.10058594,10.60237463,76.11257047,10.39
22-02-2019 4.47,1.55E+12,5.076309,10.792236,7.228363,-0.2503357,-0.70939636,0.19006348,10.60237463,76.11257047,10.39
22-02-2019 4.47,1.55E+12,-6.8061066,-3.4149475,10.474899,-0.48788452,0.17903137,0.015365601,10.60237463,76.11257047,10.39
22-02-2019 4.47,1.55E+12,8.071457,15.855972,1.4918518,0.9800415,-0.64974976,0.43081665,10.60237463,76.11257047,10.39
22-02-2019 4.47,1.55E+12,-6.3081207,-2.6799316,16.78601,-0.605072,0.39634705,0.00151062,10.60237463,76.11257047,10.39
22-02-2019 4.47,1.55E+12,4.9709625,9.233612,3.9147797,0.7797699,-0.4388275,0.24545288,10.60237463,76.11257047,10.39
22-02-2019 4.47,1.55E+12,-2.5755615,4.370987,10.968109,-0.0745697,0.24720764,0.07501221,10.60237463,76.11257047,10.39
22-02-2019 4.47,1.55E+12,2.7802734,3.6551208,10.65686,0.022369385,-0.1874237,0.16448975,10.60237463,76.11257047,10.39
22-02-2019 4.47,1.55E+12,-0.0975647,10.382828,7.271454,0.43356323,0.16944885,0.101638794,10.60237463,76.11257047,10.39
22-02-2019 4.47,1.55E+12,-0.7846985,-0.041519165,13.951279,-0.37817383,-0.003128052,0.028137207,10.60237463,76.11257047,10.39
22-02-2019 4.47,1.55E+12,1.5448608,13.172073,-6.7705383,0.7776489,-0.02230835,0.11656189,10.60237463,76.11257047,10.39
22-02-2019 4.47,1.55E+12,-1.783081,1.603302,10.652069,-0.88842773,-0.00100708,-0.14762878,10.60237463,76.11257047,10.39
22-02-2019 4.47,1.55E+12,0.08200073,10.737167,2.4232025,0.071380615,-0.1639862,0.03453064,10.60237463,76.11257047,10.39
22-02-2019 4.47,1.55E+12,0.19213867,5.714142,2.3202515,-0.45274353,0.018173218,0.07394409,10.60237463,76.11257047,10.39
22-02-2019 4.47,1.55E+12,-2.5779572,4.3638153,12.565033,-0.50813293,-0.1405487,-0.01020813,10.60237463,76.11257047,10.39
22-02-2019 4.47,1.55E+12,-2.621048,-1.2362213,14.379837,-0.13102722,-0.0382843,0.04838562,10.60237463,76.11257047,10.39
22-02-2019 4.47,1.55E+12,0.4914093,16.004425,0.8717499,0.8468933,-0.24281311,0.18792725,10.60237463,76.11257047,10.39
22-02-2019 4.47,1.55E+12,-2.9322968,4.5385895,13.091766,-0.6125183,-0.08302307,-0.058151245,10.60237463,76.11257047,10.39
22-02-2019 4.47,1.55E+12,2.0787659,11.857666,-1.8552399,-0.024505615,-0.23323059,0.08886719,10.60237463,76.11257047,10.39
22-02-2019 4.47,1.55E+12,-2.2164307,12.975754,0.04576111,-0.0234375,0.13536072,0.03453064,10.60237463,76.11257047,10.39
22-02-2019 4.47,1.55E+12,3.89357,8.048492,-1.096283,-0.66152954,-0.36105347,0.08779907,10.60237463,76.11257047,10.39
22-02-2019 4.47,1.55E+12,-1.8884277,14.60141,-6.918976,-0.08947754,0.34521484,0.018554688,10.60237463,76.11257047,10.39
22-02-2019 4.47,1.55E+12,5.016449,2.082138,11.312866,-1.4828491,-0.2982025,0.080337524,10.60237463,76.11257047,10.39
22-02-2019 4.47,1.55E+12,-4.6872406,7.157837,4.611496,-0.051132202,0.5188446,-0.025115967,10.60237463,76.11257047,10.39
22-02-2019 4.47,1.55E+12,3.6014862,2.872223,10.209137,-0.5262451,-0.28648376,0.16023254,10.60237463,76.11257047,10.39
22-02-2019 4.47,1.55E+12,-5.0774994,0.118896484,18.655884,-0.14381409,0.33135986,-0.018722534,10.60237463,76.11257047,10.39
22-02-2019 4.47,1.55E+12,5.0811005,13.215179,-9.815964,0.86605835,-0.27157593,0.246521,10.60237463,76.11257047,10.39
22-02-2019 4.47,1.55E+12,-2.5157013,5.553726,4.0201263,-0.6817627,0.24401855,-0.07519531,10.60237463,76.11257047,10.39
22-02-2019 4.47,1.55E+12,-5.685623,6.011017,14.090149,-0.269516,-0.42285156,-0.008071899,10.60237463,76.11257047,10.39
22-02-2019 4.47,1.55E+12,-5.491699,-0.31445312,9.964935,-0.0703125,0.03414917,0.18687439,10.60237463,76.11257047,10.39
22-02-2019 4.47,1.55E+12,-3.0591888,8.500992,11.15007,0.96939087,-0.6944885,0.34239197,10.60237463,76.11257047,10.39
22-02-2019 4.47,1.55E+12,-7.931381,-14.880783,35.898926,-1.0237122,-0.058517456,-0.053878784,10.60237463,76.11257047,10.39
22-02-2019 4.47,1.55E+12,2.1481934,23.560516,-19.110245,2.7622375,-0.6604004,0.33599854,10.60237463,76.11257047,10.39
22-02-2019 4.47,1.55E+12,-8.4198,2.8506775,17.336685,-1.7480927,0.124694824,-0.10928345,10.60237463,76.11257047,10.39
22-02-2019 4.47,1.55E+12,-0.12150574,5.1515045,3.184555,-0.42610168,-0.7402954,0.15597534,10.60237463,76.11257047,10.39
22-02-2019 4.47,1.55E+12,0.3932495,22.902115,-21.9785,1.29216,0.13961792,0.12295532,10.60237463,76.11257047,10.39
22-02-2019 4.47,1.55E+12,-2.0153198,-7.303131,15.445267,-1.5105438,-0.42285156,-0.030441284,10.60237463,76.11257047,10.39
22-02-2019 4.47,1.55E+12,-5.6138,3.0374298,29.142487,0.11079407,-0.05319214,0.012161255,10.60237463,76.11257047,10.39
22-02-2019 4.47,1.55E+12,-1.6920929,9.6502075,-1.7953796,0.6508789,-0.15226746,0.3477173,10.60237463,76.11257047,10.39
22-02-2019 4.47,1.55E+12,1.5759888,7.4475403,-5.223877,-0.2982788,-0.08834839,0.13467407,10.60237463,76.11257047,10.39
22-02-2019 4.47,1.55E+12,-2.3265686,-5.203415,14.753342,-1.1717834,-0.28862,-0.12312317,10.60237463,76.11257047,10.39
22-02-2019 4.47,1.55E+12,0.19213867,9.432343,-4.9653015,1.718277,-0.09687805,0.23480225,10.60237463,76.11257047,10.39
22-02-2019 4.47,1.55E+12,4.2000275,26.61792,-14.791107,1.6916351,-0.335495,0.3168335,10.60237463,76.11257047,10.39
22-02-2019 4.47,1.55E+12,-17.79071,-39.684708,45.358414,-5.286911,0.6914215,-0.61421204,10.60237463,76.11257047,10.39
22-02-2019 4.47,1.55E+12,12.036255,49.159317,-44.189514,1.9664764,-0.9586792,0.39352417,10.60237463,76.11257047,10.39
22-02-2019 4.47,1.55E+12,-6.5475464,24.391312,-10.512665,-2.5907288,0.5241699,-0.34683228,10.60237463,76.11257047,10.39
22-02-2019 4.47,1.55E+12,2.5264893,-5.883377,21.50978,-4.2152557,-0.74668884,-0.15509033,10.60237463,76.11257047,10.39
22-02-2019 4.47,1.55E+12,-3.870819,24.1447,-20.941818,2.3744812,0.50180054,0.20817566,10.60237463,76.11257047,10.39
22-02-2019 4.47,1.55E+12,5.368408,-7.406082,26.156921,-1.495636,-0.73283386,0.24333191,10.60237463,76.11257047,10.39
22-02-2019 4.47,1.55E+12,-4.0575714,10.370865,-6.3395844,1.4445038,0.6775665,-0.025115967,10.60237463,76.11257047,10.39
22-02-2019 4.47,1.55E+12,8.976471,4.406906,10.618546,-0.15765381,-0.2566681,0.1953888,10.60237463,76.11257047,10.39
22-02-2019 4.47,1.55E+12,-2.9825745,6.1786194,-1.1944427,-0.11291504,0.72232056,-0.17851257,10.60237463,76.11257047,10.39
22-02-2019 4.47,1.55E+12,5.9262543,0.7605438,24.545624,-0.9747162,-0.06384277,0.017486572,10.60237463,76.11257047,10.39
22-02-2019 4.47,1.55E+12,1.1593933,8.024551,6.560379,0.6135864,0.52737427,0.103775024,10.60237463,76.11257047,10.39
22-02-2019 4.47,1.55E+12,5.0571594,4.540985,14.698273,0.09907532,0.17477417,0.018554688,10.60237463,76.11257047,10.39
22-02-2019 4.47,1.55E+12,-1.4933777,-0.010391235,18.215347,-0.15553284,0.2823639,0.014297485,10.60237463,76.11257047,10.39
22-02-2019 4.47,1.55E+12,5.27742,7.054886,6.8428955,0.5432892,0.02670288,0.19006348,10.60237463,76.11257047,10.39
22-02-2019 4.47,1.55E+12,3.5559845,15.798523,0.007446289,0.79681396,0.18435669,0.12614441,10.60237463,76.11257047,10.39
22-02-2019 4.47,1.55E+12,1.4299469,-10.384476,28.510422,-0.44102478,0.25253296,-0.01020813,10.60237463,76.11257047,10.39
22-02-2019 4.47,1.55E+12,6.4888916,14.553528,0.8190918,2.0815277,0.046936035,0.35198975,10.60237463,76.11257047,10.39
22-02-2019 4.47,1.55E+12,-2.1517792,-6.11322,22.658997,0.3217163,0.4911499,0.06542969,10.60237463,76.11257047,10.39
22-02-2019 4.47,1.55E+12,8.172012,6.604782,9.842834,1.0535431,-0.25027466,0.24119568,10.60237463,76.11257047,10.39
22-02-2019 4.47,1.55E+12,-2.8293457,-0.33122253,21.84018,0.6498108,0.7276459,-0.036834717,10.60237463,76.11257047,10.39
22-02-2019 4.47,1.55E+12,8.279755,1.3950043,16.019867,0.396286,-0.28115845,0.2507782,10.60237463,76.11257047,10.39
22-02-2019 4.47,1.55E+12,-2.475006,6.599991,8.435043,0.96939087,0.8256531,0.019622803,10.60237463,76.11257047,10.39
22-02-2019 4.47,1.55E+12,8.531143,-3.3191833,22.49379,-0.6551361,-0.3674469,0.16555786,10.60237463,76.11257047,10.39
22-02-2019 4.47,1.55E+12,-0.50697327,14.943787,-4.0794525,0.96939087,0.9460144,-0.11140442,10.60237463,76.11257047,10.39
22-02-2019 4.47,1.55E+12,8.959702,6.0062256,12.263367,-0.9331665,-0.33761597,0.08354187,10.60237463,76.11257047,10.39
22-02-2019 4.47,1.55E+12,-4.253891,1.8546906,9.004868,-0.54115295,0.9108734,-0.21899414,10.60237463,76.11257047,10.39
22-02-2019 4.47,1.55E+12,10.008362,10.840118,4.0680237,0.5763092,-0.4697113,0.17834473,10.60237463,76.11257047,10.39
22-02-2019 4.47,1.55E+12,-3.9713745,2.0390472,14.2314,-0.20452881,0.7127228,-0.18704224,10.60237463,76.11257047,10.39
22-02-2019 4.47,1.55E+12,7.6596527,9.654999,1.9659119,0.66578674,-0.31951904,0.18367004,10.60237463,76.11257047,10.39
22-02-2019 4.47,1.55E+12,-0.43753052,0.97361755,17.655106,-0.1768341,0.60513306,-0.062408447,10.60237463,76.11257047,10.39
22-02-2019 4.47,1.55E+12,6.496063,8.149048,4.697693,0.68496704,-0.06704712,0.08354187,10.60237463,76.11257047,10.39
22-02-2019 4.47,1.55E+12,-0.09277344,3.102066,19.48668,0.051132202,0.6221771,-0.12632751,10.60237463,76.11257047,10.39
22-02-2019 4.47,1.55E+12,7.530365,7.138687,10.664047,0.36325073,-0.03614807,0.13146973,10.60237463,76.11257047,10.39
22-02-2019 4.47,1.55E+12,3.493744,6.4683075,5.686493,-0.11077881,0.84375,-0.12632751,10.60237463,76.11257047,10.39
22-02-2019 4.47,1.55E+12,7.1209564,11.409943,9.055145,-0.104400635,0.044799805,0.05050659,10.60237463,76.11257047,10.39
22-02-2019 4.47,1.55E+12,2.7467499,3.0805206,10.146896,-0.9480896,0.8533478,-0.15614319,10.60237463,76.11257047,10.39
22-02-2019 4.47,1.55E+12,9.795288,20.687485,-9.636398,1.1483612,0.004333496,0.13893127,10.60237463,76.11257047,10.39
22-02-2019 4.47,1.55E+12,-1.0744019,-12.117874,25.840881,-1.2900391,0.78089905,-0.24136353,10.60237463,76.11257047,10.39
22-02-2019 4.47,1.55E+12,7.6428986,7.344589,5.2699127,1.528656,-0.06384277,0.18473816,10.60237463,76.11257047,10.39
22-02-2019 4.47,1.55E+12,-0.42077637,4.002289,9.519608,0.79255676,0.7361603,-0.029388428,10.60237463,76.11257047,10.39
22-02-2019 4.47,1.55E+12,4.8871613,-0.5490875,20.015793,-0.5390167,-0.159729,0.06542969,10.60237463,76.11257047,10.39
22-02-2019 4.47,1.55E+12,0.5680237,2.7405396,8.794174,0.22050476,0.6860962,-0.028320312,10.60237463,76.11257047,10.39
22-02-2019 4.47,1.55E+12,5.995682,9.171371,8.664886,0.31425476,-0.08409119,0.04838562,10.60237463,76.11257047,10.39
22-02-2019 4.47,1.55E+12,0.88645935,3.0086975,12.287308,-0.116119385,0.6296387,-0.11354065,10.60237463,76.11257047,10.39
22-02-2019 4.47,1.55E+12,5.9717407,4.533798,9.220337,0.111846924,0.011779785,0.11975098,10.60237463,76.11257047,10.39
22-02-2019 4.47,1.55E+12,2.1434174,5.4842987,13.302444,0.16937256,0.5848999,-0.007003784,10.60237463,76.11257047,10.39
22-02-2019 4.47,1.55E+12,2.5193024,0.7437744,14.949661,-0.024505615,0.14707947,0.002578735,10.60237463,76.11257047,10.39
22-02-2019 4.47,1.55E+12,2.7491455,10.813782,-0.13859558,0.8639374,0.41018677,0.052642822,10.60237463,76.11257047,10.39
22-02-2019 4.47,1.55E+12,2.2751007,0.45407104,14.695877,-0.7776489,0.07463074,0.06436157,10.60237463,76.11257047,10.39
22-02-2019 4.47,1.55E+12,2.7850647,9.295868,6.1677246,0.16192627,0.38781738,0.031341553,10.60237463,76.11257047,10.39
22-02-2019 4.47,1.55E+12,1.908783,5.536972,7.9657745,-0.3259735,0.25146484,0.03453064,10.60237463,76.11257047,10.39
22-02-2019 4.47,1.55E+12,-0.32261658,3.4731598,13.814804,-0.047943115,0.2962036,-0.027252197,10.60237463,76.11257047,10.39
22-02-2019 4.47,1.55E+12,0.9319458,-2.3160095,18.967133,-0.28016663,0.09487915,0.051574707,10.60237463,76.11257047,10.39
22-02-2019 4.47,1.55E+12,0.5273285,11.448257,2.7320557,0.91825867,0.25253296,0.052642822,10.60237463,76.11257047,10.39
22-02-2019 4.47,1.55E+12,0.60154724,0.8227844,15.981567,-0.66685486,-0.005264282,-0.06452942,10.60237463,76.11257047,10.39
22-02-2019 4.47,1.55E+12,-0.95228577,0.16677856,8.770233,0.31851196,0.20140076,0.01109314,10.60237463,76.11257047,10.39
22-02-2019 4.47,1.55E+12,4.142563,9.48262,7.07753,0.7073364,-0.19807434,0.080337524,10.60237463,76.11257047,10.39
22-02-2019 4.47,1.55E+12,-4.2251587,-3.855484,18.397308,0.2034607,0.318573,-0.07519531,10.60237463,76.11257047,10.39
22-02-2019 4.47,1.55E+12,4.7483063,3.9855194,9.979294,0.74568176,-0.29714966,0.22947693,10.60237463,76.11257047,10.39
22-02-2019 4.47,1.55E+12,-4.347275,2.1036835,17.542587,0.6743164,0.4442749,0.15597534,10.60237463,76.11257047,10.39
22-02-2019 4.47,1.55E+12,3.7283783,-2.1484222,18.71814,0.027694702,-0.26306152,0.16662598,10.60237463,76.11257047,10.39
22-02-2019 4.47,1.55E+12,-1.0025635,11.330933,2.8062744,1.1153259,0.48049927,0.070755005,10.60237463,76.11257047,10.39
22-02-2019 4.47,1.55E+12,6.134552,3.430069,15.500336,-0.56884766,-0.27157593,0.14212036,10.60237463,76.11257047,10.39
22-02-2019 4.47,1.55E+12,-2.9873657,4.1507263,16.216202,0.11079407,0.585968,-0.0549469,10.60237463,76.11257047,10.39
22-02-2019 4.47,1.55E+12,7.1209564,7.3134613,10.453354,0.4697876,-0.20233154,0.21243286,10.60237463,76.11257047,10.39
22-02-2019 4.47,1.55E+12,-4.7542877,2.762085,9.976913,0.45593262,0.6733093,-0.09223938,10.60237463,76.11257047,10.39
22-02-2019 4.47,1.55E+12,7.858368,4.0525665,9.526794,0.255661,-0.43669128,0.070755005,10.60237463,76.11257047,10.39
22-02-2019 4.47,1.55E+12,-1.8860321,4.509857,8.916275,0.30467224,0.72657776,-0.10928345,10.60237463,76.11257047,10.39
22-02-2019 4.47,1.55E+12,6.893509,7.64386,11.813263,0.13423157,-0.19488525,0.061172485,10.60237463,76.11257047,10.39
22-02-2019 4.47,1.55E+12,-2.2786713,0.044662476,10.575455,0.067108154,0.7382965,-0.1721344,10.60237463,76.11257047,10.39
22-02-2019 4.47,1.55E+12,7.5207825,5.6542816,12.486023,0.22477722,-0.2694397,0.09098816,10.60237463,76.11257047,10.39
22-02-2019 4.47,1.55E+12,-2.9442596,0.085372925,10.592209,0.14593506,0.7670593,-0.14442444,10.60237463,76.11257047,10.39
22-02-2019 4.47,1.55E+12,7.645294,7.742035,10.546722,0.36431885,-0.2896881,0.07182312,10.60237463,76.11257047,10.39
22-02-2019 4.47,1.55E+12,-2.3361359,0.45646667,9.318497,0.07775879,0.75001526,-0.16786194,10.60237463,76.11257047,10.39
22-02-2019 4.47,1.55E+12,5.885544,1.3303528,16.26648,-0.07136536,-0.2651825,0.021743774,10.60237463,76.11257047,10.39
22-02-2019 4.47,1.55E+12,-3.312973,4.789978,7.673691,0.56140137,0.6498718,-0.13591003,10.60237463,76.11257047,10.39
22-02-2019 4.47,1.55E+12,4.384384,1.1124878,19.15628,-0.11717224,-0.35040283,0.012161255,10.60253019,76.1121344,9.86
22-02-2019 4.47,1.55E+12,-1.5149231,10.15538,1.0872345,0.8010864,0.41764832,-0.062408447,10.60253019,76.1121344,9.86
22-02-2019 4.47,1.55E+12,3.0819397,5.8386383,8.353638,-0.20559692,-0.24494934,0.019622803,10.60253019,76.1121344,9.86
22-02-2019 4.47,1.55E+12,-1.1797333,10.203262,5.3201904,0.050064087,0.19500732,-0.07519531,10.60253019,76.1121344,9.86
22-02-2019 4.47,1.55E+12,1.02771,3.8658142,7.087097,-0.25672913,-0.09899902,0.049453735,10.60253019,76.1121344,9.86
22-02-2019 4.47,1.55E+12,2.2248077,13.521637,1.3601685,0.15127563,-0.068115234,0.06010437,10.60253019,76.1121344,9.86
22-02-2019 4.47,1.55E+12,-3.767868,3.418106,10.031967,-0.7893524,0.12789917,-0.089035034,10.60253019,76.1121344,9.86
22-02-2019 4.47,1.55E+12,3.9079437,12.030045,-0.5791321,-0.33876038,-0.3078003,0.15171814,10.60253019,76.1121344,9.86
22-02-2019 4.47,1.55E+12,-2.8868103,10.033279,2.0568848,-0.26098633,0.2163086,-0.037902832,10.60253019,76.1121344,9.86
22-02-2019 4.47,1.55E+12,1.6693573,6.200165,7.762268,-0.6231842,-0.29501343,0.051574707,10.60253019,76.1121344,9.86
22-02-2019 4.47,1.55E+12,-1.2611389,8.357346,4.8389435,-0.13954163,0.12683105,0.06968689,10.60253019,76.1121344,9.86
22-02-2019 4.47,1.55E+12,3.1394043,9.880051,-2.1856384,-0.63916016,-0.15440369,0.11123657,10.60253019,76.1121344,9.86
22-02-2019 4.47,1.55E+12,-5.12059,6.3725433,7.343277,-0.6775055,0.20353699,-0.062408447,10.60253019,76.1121344,9.86
22-02-2019 4.47,1.55E+12,3.7523193,11.7164,1.4798889,-0.53582764,-0.47503662,0.15916443,10.60253019,76.1121344,9.86
22-02-2019 4.47,1.55E+12,-5.53479,5.505844,3.6059418,-0.5518036,0.32710266,-0.013397217,10.60253019,76.1121344,9.86
22-02-2019 4.47,1.55E+12,2.521698,7.3541718,8.097458,-0.4548645,-0.6103363,0.18580627,10.60253019,76.1121344,9.86
22-02-2019 4.47,1.55E+12,-7.229889,-2.5290985,7.4677887,-0.31318665,0.32391357,0.03878784,10.60253019,76.1121344,9.86
22-02-2019 4.47,1.55E+12,3.778656,18.855911,-2.5567474,0.8010864,-0.75946045,0.35198975,10.60253019,76.1121344,9.86
22-02-2019 4.47,1.55E+12,-7.7111206,0.5019684,14.880234,-1.195221,0.2727661,-0.02192688,10.60253019,76.1121344,9.86
22-02-2019 4.47,1.55E+12,1.367691,9.906387,-0.19606018,0.13423157,-0.6550751,0.28381348,10.60253019,76.1121344,9.86
22-02-2019 4.47,1.55E+12,-3.5523987,8.0173645,3.1558228,-0.32383728,0.0874176,0.09526062,10.60253019,76.1121344,9.86
22-02-2019 4.47,1.55E+12,-2.0919342,-0.110946655,13.843536,-0.6796417,-0.4185791,0.18899536,10.60253019,76.1121344,9.86
22-02-2019 4.47,1.55E+12,-0.2866974,11.919907,5.1118927,0.6753845,-0.101135254,0.24865723,10.60253019,76.1121344,9.86
22-02-2019 4.47,1.55E+12,-0.7272339,2.4197235,8.130981,-0.27696228,-0.17677307,0.18580627,10.60253019,76.1121344,9.86
22-02-2019 4.47,1.55E+12,-2.803009,3.3462677,5.389618,-0.061782837,0.04374695,0.13679504,10.60253019,76.1121344,9.86
22-02-2019 4.47,1.55E+12,0.27833557,4.9192657,6.00972,-0.16830444,-0.3589325,0.23693848,10.60253019,76.1121344,9.86
22-02-2019 4.47,1.55E+12,-1.8166046,11.0460205,-6.2414093,0.51664734,0.142807,0.09738159,10.60253019,76.1121344,9.86
22-02-2019 4.47,1.55E+12,1.4706421,4.0381927,13.5394745,-0.45274353,-0.3642578,0.16130066,10.60253019,76.1121344,9.86
22-02-2019 4.47,1.55E+12,-3.5236664,5.7093506,5.77269,-0.028762817,0.34095764,0.101638794,10.60253019,76.1121344,9.86
22-02-2019 4.47,1.55E+12,3.7666779,3.2193756,15.909744,-0.621048,-0.24601746,0.19325256,10.60253019,76.1121344,9.86
22-02-2019 4.47,1.55E+12,-1.5484467,17.56305,-0.23196411,0.8234558,0.4080658,-0.022994995,10.60253019,76.1121344,9.86
22-02-2019 4.47,1.55E+12,3.9007568,-5.098068,19.331055,-1.1931,-0.044677734,0.02281189,10.60253019,76.1121344,9.86
22-02-2019 4.47,1.55E+12,1.616684,18.034698,-6.7322235,1.7331848,0.4133911,0.17727661,10.60253019,76.1121344,9.86
22-02-2019 4.47,1.55E+12,5.6796417,-1.6049347,17.90651,-0.6274414,0.004333496,0.080337524,10.60253019,76.1121344,9.86
22-02-2019 4.47,1.55E+12,0.5129547,17.124908,-5.503998,1.3731232,0.54548645,0.020690918,10.60253019,76.1121344,9.86
22-02-2019 4.47,1.55E+12,7.5279694,1.0957184,14.154785,-0.8223877,0.14920044,0.056900024,10.60253019,76.1121344,9.86
22-02-2019 4.47,1.55E+12,0.77153015,13.708374,2.4495392,0.5667267,0.56892395,-0.061340332,10.60253019,76.1121344,9.86
22-02-2019 4.47,1.55E+12,9.122513,6.181015,10.491653,-0.95448303,0.32070923,-0.0741272,10.60253019,76.1121344,9.86
22-02-2019 4.47,1.55E+12,1.0205383,15.6237335,-7.292465,0.48683167,0.7127228,-0.07305908,10.60253019,76.1121344,9.86
22-02-2019 4.47,1.55E+12,9.773727,2.5825195,15.476395,-1.415741,0.236557,0.023880005,10.60253019,76.1121344,9.86
22-02-2019 4.47,1.55E+12,1.10672,13.799362,-4.855179,0.7723236,0.8160553,-0.009140015,10.60253019,76.1121344,9.86
22-02-2019 4.47,1.55E+12,9.081802,6.430008,13.982407,-0.6647186,0.16731262,-0.018722534,10.60253019,76.1121344,9.86
22-02-2019 4.47,1.55E+12,-1.3688812,5.8314514,5.248352,-0.01171875,0.8671875,-0.060272217,10.60253019,76.1121344,9.86
22-02-2019 4.47,1.55E+12,9.120117,8.572815,14.032684,-0.22477722,0.19393921,-0.005950928,10.60253019,76.1121344,9.86
22-02-2019 4.47,1.55E+12,-1.8309631,6.57605,8.5308075,0.017044067,0.8309784,-0.23817444,10.60253019,76.1121344,9.86
22-02-2019 4.47,1.55E+12,8.243835,6.137909,6.893173,0.002136231,0.2397461,-0.03364563,10.60253019,76.1121344,9.86
22-02-2019 4.47,1.55E+12,0.6494293,6.054123,10.525177,0.0745697,0.5667877,-0.102890015,10.60253019,76.1121344,9.86
22-02-2019 4.47,1.55E+12,2.739563,4.438034,6.1701202,0.32276917,0.30899048,-0.053878784,10.60253019,76.1121344,9.86
22-02-2019 4.47,1.55E+12,1.9423065,3.9496155,6.361664,-0.050064087,0.24401855,0.020690918,10.60253019,76.1121344,9.86
22-02-2019 4.47,1.55E+12,2.5121155,5.4292297,11.68158,0.06285095,0.24507141,-6.26E-04,10.60253019,76.1121344,9.86
22-02-2019 4.47,1.55E+12,-1.6849213,0.36549377,12.751785,-0.18962097,0.38674927,-0.0826416,10.60253019,76.1121344,9.86
22-02-2019 4.47,1.55E+12,3.3405151,10.423538,2.978653,0.61465454,0.042678833,0.033462524,10.60253019,76.1121344,9.86
22-02-2019 4.47,1.55E+12,-2.407959,0.006362915,16.848267,-0.667923,0.3058014,-0.11140442,10.60253019,76.1121344,9.86
22-02-2019 4.47,1.55E+12,1.0899658,11.065186,0.71614075,0.47937012,0.00112915,0.018554688,10.60253019,76.1121344,9.86
22-02-2019 4.47,1.55E+12,0.5105591,5.671051,5.7870483,-0.38349915,0.13215637,-0.0868988,10.60253019,76.1121344,9.86
22-02-2019 4.47,1.55E+12,-1.8453217,4.9575653,13.256958,-0.111846924,0.09274292,-0.1103363,10.60253019,76.1121344,9.86
22-02-2019 4.47,1.55E+12,-0.2866974,1.0454407,19.216125,-0.12037659,0.030960083,-0.020858765,10.60253019,76.1121344,9.86
22-02-2019 4.47,1.55E+12,-1.0815735,9.736404,0.5269928,0.874588,0.09593201,-0.030441284,10.60253019,76.1121344,9.86
22-02-2019 4.47,1.55E+12,-0.4590912,0.20028687,17.27443,-0.58695984,-0.14480591,-0.1103363,10.60253019,76.1121344,9.86
22-02-2019 4.47,1.55E+12,-2.676117,9.250381,2.2340546,0.5976105,0.052261353,-0.030441284,10.60253019,76.1121344,9.86
22-02-2019 4.47,1.55E+12,2.1553802,2.4795685,10.49884,-0.21411133,-0.2854309,-0.04748535,10.60253019,76.1121344,9.86
22-02-2019 4.47,1.55E+12,-5.8891296,9.513733,6.450241,0.7542114,0.0831604,-0.14123535,10.60253019,76.1121344,9.86
22-02-2019 4.47,1.55E+12,-0.30825806,-6.7428894,22.90799,-0.8554077,-0.39941406,0.007904053,10.60253019,76.1121344,9.86
22-02-2019 4.47,1.55E+12,-2.644989,15.657257,-6.8710938,1.3241272,-0.08409119,0.04838562,10.60253019,76.1121344,9.86
22-02-2019 4.47,1.55E+12,0.6063385,-1.2601624,16.130005,-1.2048187,-0.4185791,-0.005950928,10.60253019,76.1121344,9.86
22-02-2019 4.47,1.55E+12,-3.4973297,9.805832,-2.547165,0.30786133,0.002197266,0.080337524,10.60253019,76.1121344,9.86
22-02-2019 4.47,1.55E+12,3.213623,5.7763824,12.8284,-0.45700073,-0.46012878,0.07714844,10.60253019,76.1121344,9.86
22-02-2019 4.47,1.55E+12,-6.0160217,9.391632,1.3003235,0.31851196,0.16944885,-0.08052063,10.60253019,76.1121344,9.86
22-02-2019 4.47,1.55E+12,-0.07362366,-4.463608,16.795593,-0.93955994,-0.4846344,0.07182312,10.60253019,76.1121344,9.86
22-02-2019 4.47,1.55E+12,-5.3384705,13.215179,-3.0954285,0.6764374,-0.17463684,0.08779907,10.60253019,76.1121344,9.86
22-02-2019 4.47,1.55E+12,-0.8277893,3.3486633,9.150909,-0.63809204,-0.4888916,0.030273438,10.60253019,76.1121344,9.86
22-02-2019 4.47,1.55E+12,-4.5196533,10.176926,1.2045441,0.111846924,-0.2619934,0.0899353,10.60253019,76.1121344,9.86
22-02-2019 4.47,1.55E+12,1.0588379,5.0246124,4.752762,-0.3771057,-0.42178345,0.16236877,10.60253019,76.1121344,9.86
22-02-2019 4.47,1.55E+12,-4.8883514,4.9503937,6.6106567,-0.12037659,-0.18635559,0.04838562,10.60253019,76.1121344,9.86
22-02-2019 4.47,1.55E+12,-0.15501404,4.4523926,7.9250793,-0.16404724,-0.37065125,0.1453247,10.60253019,76.1121344,9.86
22-02-2019 4.47,1.55E+12,-2.8173676,4.576889,5.7798767,-0.07243347,-0.22363281,0.12081909,10.60253019,76.1121344,9.86
22-02-2019 4.47,1.55E+12,2.1529846,10.816177,-0.016494751,0.16511536,-0.29075623,0.18153381,10.60253019,76.1121344,9.86
22-02-2019 4.47,1.55E+12,-3.7487183,-2.6871185,19.350204,-0.8223877,0.00112915,0.051574707,10.60253019,76.1121344,9.86
22-02-2019 4.47,1.55E+12,4.999695,10.636612,2.3872833,0.9107971,-0.2939453,0.2699585,10.60253019,76.1121344,9.86
22-02-2019 4.47,1.55E+12,-2.4247284,-1.5450745,16.28563,-0.28123474,0.29515076,0.03666687,10.60253019,76.1121344,9.86
22-02-2019 4.47,1.55E+12,5.4953003,12.86322,0.6634674,0.95874023,-0.25985718,0.25505066,10.60253019,76.1121344,9.86
22-02-2019 4.47,1.55E+12,-0.11431885,0.39422607,15.485962,-0.5230408,0.33988953,0.059036255,10.60253019,76.1121344,9.86
22-02-2019 4.47,1.55E+12,6.814499,16.093002,-0.1481781,0.8585968,-0.11071777,0.23373413,10.60253019,76.1121344,9.86
22-02-2019 4.47,1.55E+12,2.1194763,-2.8858337,21.564835,-0.9150543,0.49861145,-0.079452515,10.60253019,76.1121344,9.86
22-02-2019 4.47,1.55E+12,5.339676,13.964554,1.9323883,1.1654053,0.12896729,0.15490723,10.60253019,76.1121344,9.86
22-02-2019 4.47,1.55E+12,4.6980286,-0.29051208,16.175491,-0.46871948,0.41445923,-0.04322815,10.60253019,76.1121344,9.86
22-02-2019 4.47,1.55E+12,4.8919525,12.796188,-1.175293,0.8777771,0.28129578,0.10270691,10.60253019,76.1121344,9.86
22-02-2019 4.47,1.55E+12,5.265457,0.41337585,18.414078,-0.45806885,0.5050049,-0.029388428,10.60253019,76.1121344,9.86
22-02-2019 4.47,1.55E+12,6.474518,8.304672,4.5348816,0.62957764,0.3377533,0.07182312,10.60253019,76.1121344,9.86
22-02-2019 4.47,1.55E+12,4.621414,2.944046,17.882553,0.083099365,0.6626587,-0.07519531,10.60253019,76.1121344,9.86
22-02-2019 4.47,1.55E+12,2.102707,1.122055,16.276047,-0.055389404,0.35479736,4.43E-04,10.60253019,76.1121344,9.86
22-02-2019 4.47,1.55E+12,3.6900635,3.8131409,9.330475,0.50813293,0.41551208,-0.020858765,10.60253019,76.1121344,9.86
22-02-2019 4.47,1.55E+12,4.865616,7.485855,6.972183,0.3717804,0.12043762,0.028137207,10.60253019,76.1121344,9.86
22-02-2019 4.47,1.55E+12,2.011734,1.6894836,12.490814,0.18962097,0.52098083,-0.040039062,10.60253019,76.1121344,9.86
22-02-2019 4.47,1.55E+12,4.4562073,3.2193756,18.057343,0.029830933,0.0639801,0.07182312,10.60253019,76.1121344,9.86
22-02-2019 4.47,1.55E+12,0.44592285,3.4444427,11.418213,0.5773773,0.61473083,-0.040039062,10.60253019,76.1121344,9.86
22-02-2019 4.47,1.55E+12,4.6692963,3.0446014,13.019943,0.11824036,-0.0617218,0.032409668,10.60253019,76.1121344,9.86
22-02-2019 4.47,1.55E+12,-0.5237274,4.327896,7.4438477,0.43995667,0.47731018,-0.02406311,10.60253019,76.1121344,9.86
22-02-2019 4.47,1.55E+12,5.45459,5.276001,4.197296,0.1960144,-0.08302307,0.10270691,10.60253019,76.1121344,9.86
22-02-2019 4.47,1.55E+12,0.89364624,4.2584686,13.264145,0.14593506,0.40379333,-0.065597534,10.60253019,76.1121344,9.86
22-02-2019 4.47,1.55E+12,2.6031036,2.4771729,9.117386,0.19387817,0.04586792,0.035598755,10.60253019,76.1121344,9.86
22-02-2019 4.47,1.55E+12,0.26156616,6.2695923,15.763687,0.5443573,0.32070923,0.045181274,10.60253019,76.1121344,9.86
22-02-2019 4.47,1.55E+12,2.8880157,2.4436646,11.8515625,0.047943115,0.068237305,-0.003814697,10.60253019,76.1121344,9.86
22-02-2019 4.47,1.55E+12,4.195236,7.327835,8.478134,0.19708252,0.43043518,-0.05708313,10.60253019,76.1121344,9.86
22-02-2019 4.47,1.55E+12,6.0459595,17.416992,1.9228058,0.51239014,0.17796326,-0.008071899,10.60253019,76.1121344,9.86
22-02-2019 4.47,1.55E+12,2.1793213,-4.006317,16.656723,-0.96832275,0.621109,-0.20941162,10.60253019,76.1121344,9.86
22-02-2019 4.47,1.55E+12,8.435379,17.177582,-3.3372498,1.3773956,0.04374695,0.12614441,10.60253019,76.1121344,9.86
22-02-2019 4.47,1.55E+12,-1.2348022,-5.191452,23.647797,-0.6370239,0.6637268,-0.22538757,10.60253019,76.1121344,9.86
22-02-2019 4.47,1.55E+12,7.0156097,8.553665,5.9809875,1.0471497,-0.032958984,0.10910034,10.60253019,76.1121344,9.86
22-02-2019 4.47,1.55E+12,2.277481,6.248047,8.681641,0.29614258,0.67544556,-0.1103363,10.60253019,76.1121344,9.86
22-02-2019 4.47,1.55E+12,3.0364532,3.169098,18.471527,-0.33448792,0.0831604,-0.09010315,10.60253019,76.1121344,9.86
22-02-2019 4.47,1.55E+12,3.0532074,10.406769,-0.84010315,0.3057251,0.52523804,-0.0975647,10.60253019,76.1121344,9.86
22-02-2019 4.47,1.55E+12,5.7059784,6.5353546,10.381531,-0.49960327,0.005386353,-0.034713745,10.60253019,76.1121344,9.86
22-02-2019 4.47,1.55E+12,-0.6649933,4.323105,5.6817017,-0.104400635,0.58062744,-0.21260071,10.60253019,76.1121344,9.86
22-02-2019 4.47,1.55E+12,3.110672,-1.3032684,17.39415,-0.3536682,-0.093673706,0.028137207,10.60253019,76.1121344,9.86
22-02-2019 4.47,1.55E+12,-1.7926483,11.110672,6.90036,0.9480896,0.27490234,-0.0549469,10.60253019,76.1121344,9.86
22-02-2019 4.47,1.55E+12,-0.011367798,-2.5769806,17.875381,-0.5816345,-0.12776184,-0.04322815,10.60253019,76.1121344,9.86
22-02-2019 4.47,1.55E+12,-2.1685486,10.950256,0.13912964,0.96406555,0.084228516,0.023880005,10.60253019,76.1121344,9.86
22-02-2019 4.47,1.55E+12,1.5424652,-1.7342224,19.941574,-0.6743164,-0.33229065,0.020690918,10.60253019,76.1121344,9.86
22-02-2019 4.47,1.55E+12,-1.9506683,13.088287,-7.27092,0.9949646,0.12683105,0.01109314,10.60253019,76.1121344,9.86
22-02-2019 4.47,1.55E+12,2.82576,7.806671,6.4478455,-0.5858917,-0.38555908,0.04838562,10.60253019,76.1121344,9.86
22-02-2019 4.47,1.55E+12,-7.1484833,-0.44136047,15.7612915,-0.54008484,0.054397583,-0.0315094,10.60253019,76.1121344,9.86
22-02-2019 4.47,1.55E+12,5.028427,10.895187,2.7464142,0.7712555,-0.48568726,0.18792725,10.60253019,76.1121344,9.86
22-02-2019 4.47,1.55E+12,-2.9418793,4.943207,4.982605,-0.21092224,0.15985107,-0.07305908,10.60253019,76.1121344,9.86
22-02-2019 4.47,1.55E+12,0.41958618,6.2432556,4.7407837,-0.18109131,-0.20446777,0.032409668,10.60253019,76.1121344,9.86
22-02-2019 4.47,1.55E+12,1.798645,11.742737,2.2651825,-0.5347595,-0.093673706,0.054779053,10.60253019,76.1121344,9.86
22-02-2019 4.47,1.55E+12,-0.71047974,12.204819,-0.19606018,-0.2034607,0.15666199,-0.04748535,10.60253019,76.1121344,9.86
22-02-2019 4.47,1.55E+12,3.395584,6.679001,-2.7386932,-0.94914246,-0.08622742,-0.038970947,10.60253019,76.1121344,9.86
22-02-2019 4.47,1.55E+12,-4.8763885,6.41803,12.49321,-0.687088,0.24613953,-0.15614319,10.60253019,76.1121344,9.86
22-02-2019 4.47,1.55E+12,4.178482,16.670013,-7.9173584,-0.46765137,-0.3173828,0.047317505,10.60253019,76.1121344,9.86
22-02-2019 4.47,1.55E+12,-4.4023285,13.406708,-4.7641907,-0.6998749,0.40060425,-0.13058472,10.60253019,76.1121344,9.86
22-02-2019 4.47,1.55E+12,1.6047211,2.276062,14.489975,-1.5158691,-0.56025696,0.008972168,10.60253019,76.1121344,9.86
22-02-2019 4.47,1.55E+12,-8.61853,-3.8650665,12.608139,-0.19920349,0.52949524,-0.06452942,10.60253019,76.1121344,9.86
22-02-2019 4.47,1.55E+12,8.071457,25.080841,-6.188751,1.1664581,-0.71899414,0.2752838,10.60253019,76.1121344,9.86
22-02-2019 4.47,1.55E+12,-11.065399,-6.7955627,20.822647,-2.0431824,0.69781494,-0.4118042,10.60253019,76.1121344,9.86
22-02-2019 4.47,1.55E+12,5.3229065,19.370667,-10.5581665,0.71266174,-0.70513916,0.117630005,10.60253019,76.1121344,9.86
22-02-2019 4.47,1.55E+12,-6.5954285,3.8442688,17.343872,-1.1845703,0.27490234,-0.1572113,10.60253019,76.1121344,9.86
22-02-2019 4.47,1.55E+12,0.19692993,11.694855,-1.2399292,0.21412659,-0.5570679,0.105911255,10.60253019,76.1121344,9.86
22-02-2019 4.47,1.55E+12,-6.396698,7.0333405,5.499756,-0.13954163,0.115112305,-0.077316284,10.60253019,76.1121344,9.86
22-02-2019 4.47,1.55E+12,-3.2124176,1.6368103,14.798828,0.22796631,-0.8457489,0.10803223,10.60253019,76.1121344,9.86
22-02-2019 4.47,1.55E+12,-5.1613007,-0.2091217,4.9921722,0.4420929,0.042678833,0.047317505,10.60253019,76.1121344,9.86
22-02-2019 4.47,1.55E+12,5.95E-04,11.582321,-0.35647583,1.0737915,-0.65719604,0.20178223,10.60253019,76.1121344,9.86
22-02-2019 4.47,1.55E+12,-7.6799927,-5.775635,13.244995,-1.1376953,0.15026855,-0.23284912,10.60253019,76.1121344,9.86
22-02-2019 4.47,1.55E+12,1.3078308,11.730774,7.8388824,0.44102478,-0.6103363,0.13893127,10.60253019,76.1121344,9.86
22-02-2019 4.47,1.55E+12,-2.2116394,7.8641357,4.314621,-0.26737976,0.1854248,-0.06347656,10.60253019,76.1121344,9.86
22-02-2019 4.47,1.55E+12,-0.9259491,0.7437744,19.745255,-0.7233124,-0.17996216,-0.08052063,10.60253019,76.1121344,9.86
22-02-2019 4.47,1.55E+12,1.0875702,9.12587,3.883667,0.7233124,0.0874176,0.13893127,10.60253019,76.1121344,9.86
22-02-2019 4.47,1.55E+12,3.8073883,7.789917,5.940277,-0.05859375,-0.07556152,0.037734985,10.60253019,76.1121344,9.86
22-02-2019 4.47,1.55E+12,0.4411316,16.157654,-8.649979,0.63916016,0.3058014,-0.09010315,10.60253019,76.1121344,9.86
22-02-2019 4.47,1.55E+12,1.7076721,-7.67424,29.690765,-0.9470215,-0.09048462,-0.15402222,10.60253019,76.1121344,9.86
22-02-2019 4.47,1.55E+12,4.8751984,10.98378,0.057724,1.5094757,0.21844482,0.13360596,10.60253019,76.1121344,9.86
22-02-2019 4.47,1.55E+12,0.41479492,-7.2408905,31.773712,-0.03727722,0.48156738,-0.053878784,10.60253019,76.1121344,9.86
22-02-2019 4.47,1.55E+12,6.5224,7.964691,9.699173,1.3038788,0.028823853,0.032409668,10.60253019,76.1121344,9.86
22-02-2019 4.47,1.55E+12,1.853714,-4.317566,19.977493,0.26312256,0.7414856,-0.17425537,10.60253019,76.1121344,9.86
22-02-2019 4.47,1.55E+12,11.535858,14.946182,4.4487,1.2602081,-0.10006714,0.113357544,10.60253019,76.1121344,9.86
22-02-2019 4.47,1.55E+12,-0.39923096,-10.152237,28.400284,-0.46444702,1.0482788,-0.33937073,10.60253019,76.1121344,9.86
22-02-2019 4.47,1.55E+12,14.293991,17.278137,-6.3491516,2.2349243,-0.20339966,0.22521973,10.60253019,76.1121344,9.86
22-02-2019 4.47,1.55E+12,-2.8748322,-9.335815,27.375565,-0.25886536,1.209137,-0.37878418,10.60253019,76.1121344,9.86
22-02-2019 4.47,1.55E+12,13.822327,3.7365265,11.061478,1.1377106,-0.4462738,0.12934875,10.60253019,76.1121344,9.86
22-02-2019 4.47,1.55E+12,-1.2395935,9.039688,5.61467,0.9384918,1.3934326,-0.2594757,10.60253019,76.1121344,9.86
22-02-2019 4.47,1.55E+12,10.685928,-0.4700775,30.629288,-0.99069214,-0.5964813,0.00151062,10.60253019,76.1121344,9.86
22-02-2019 4.47,1.55E+12,-2.6186523,6.157074,-3.8663635,0.5028076,1.2155304,-0.3010254,10.60253019,76.1121344,9.86
22-02-2019 4.47,1.55E+12,12.972382,14.927032,4.831772,0.002136231,-0.64442444,0.16555786,10.60253019,76.1121344,9.86
22-02-2019 4.47,1.55E+12,-7.397476,-7.444397,17.556946,-1.0077362,1.0216522,-0.3489685,10.60253019,76.1121344,9.86
22-02-2019 4.47,1.55E+12,10.767334,11.335724,-2.4226685,1.5723267,-0.6465454,0.28486633,10.60253019,76.1121344,9.86
22-02-2019 4.47,1.55E+12,-6.7414703,1.390213,15.902557,0.6402283,0.5987396,-0.08052063,10.60253019,76.1121344,9.86
22-02-2019 4.47,1.55E+12,1.9590607,-16.776993,33.040253,-1.0258484,-0.47717285,-0.0315094,10.60250683,76.11171379,10.03
22-02-2019 4.47,1.55E+12,0.3070526,22.631561,-14.791107,2.2381287,0.3334961,0.08673096,10.60250683,76.11171379,10.03
22-02-2019 4.47,1.55E+12,2.0979156,1.9528503,13.9895935,-1.624527,-0.33761597,-0.11566162,10.60250683,76.11171379,10.03
22-02-2019 4.47,1.55E+12,-3.494934,8.3741,-2.2957764,-0.20985413,0.06504822,-0.19129944,10.60250683,76.11171379,10.03
22-02-2019 4.47,1.55E+12,3.6182404,13.442627,2.4830475,-0.11717224,-0.4058075,0.1719513,10.60250683,76.11171379,10.03
22-02-2019 4.47,1.55E+12,-3.0567932,7.028549,6.9410553,-0.9576721,0.03842163,-0.0592041,10.60250683,76.11171379,10.03
22-02-2019 4.47,1.55E+12,-4.1677094,5.2424774,12.521942,-0.40586853,-0.1437378,-0.008071899,10.60250683,76.11171379,10.03
22-02-2019 4.47,1.55E+12,5.1002502,17.024353,-3.9453735,-0.37496948,-0.42071533,0.20391846,10.60250683,76.11171379,10.03
22-02-2019 4.47,1.55E+12,-5.111023,12.820129,-4.991638,-0.22157288,0.37930298,-0.17958069,10.60250683,76.11171379,10.03
22-02-2019 4.47,1.55E+12,7.2286987,14.515228,-2.7315216,-0.81599426,-0.671051,-0.0357666,10.60250683,76.11171379,10.03
22-02-2019 4.47,1.55E+12,-8.285736,6.1355133,2.231659,-0.68603516,0.6626587,-0.2232666,10.60250683,76.11171379,10.03
22-02-2019 4.47,1.55E+12,5.0332184,13.066727,5.4757996,-0.43782043,-0.7349701,0.13679504,10.60250683,76.11171379,10.03
22-02-2019 4.47,1.55E+12,-8.781326,2.8195496,9.3328705,-0.67536926,0.52949524,-0.1529541,10.60250683,76.11171379,10.03
22-02-2019 4.47,1.55E+12,5.878372,11.163345,3.9028168,-0.10545349,-0.73709106,0.1921997,10.60250683,76.11171379,10.03
22-02-2019 4.47,1.55E+12,-9.422974,3.8322906,13.628067,-0.46018982,0.47943115,-0.124191284,10.60250683,76.11171379,10.03
22-02-2019 4.47,1.55E+12,6.5128326,13.236725,-9.629211,0.16725159,-0.7584076,0.26249695,10.60250683,76.11171379,10.03
22-02-2019 4.47,1.55E+12,-6.269806,12.755493,-4.0866394,-0.35153198,0.42297363,-0.14337158,10.60250683,76.11171379,10.03
22-02-2019 4.47,1.55E+12,3.1729126,4.1004486,4.9059906,-1.0418243,-0.77438354,-0.005950928,10.60250683,76.11171379,10.03
22-02-2019 4.47,1.55E+12,-8.403046,7.442749,-3.2965546,-0.007461548,0.52523804,-0.13591003,10.60250683,76.11171379,10.03
22-02-2019 4.47,1.55E+12,1.6382294,5.5034485,13.053452,-0.51239014,-0.8691864,0.17941284,10.60250683,76.11171379,10.03
22-02-2019 4.47,1.55E+12,-10.660782,-7.717331,14.056625,-0.747818,0.44854736,-0.17745972,10.60250683,76.11171379,10.03
22-02-2019 4.47,1.55E+12,5.7251434,17.275742,0.6275482,0.87138367,-0.88090515,0.32322693,10.60250683,76.11171379,10.03
22-02-2019 4.47,1.55E+12,-10.299255,-4.5737457,15.337524,-1.0876312,0.5369568,-0.22859192,10.60250683,76.11171379,10.03
22-02-2019 4.47,1.55E+12,5.2582703,18.877457,-6.7801056,0.87031555,-0.7861023,0.21562195,10.60250683,76.11171379,10.03
22-02-2019 4.47,1.55E+12,-5.601837,2.7980042,12.021561,-1.1100006,0.29940796,-0.12312317,10.60250683,76.11171379,10.03
22-02-2019 4.47,1.55E+12,2.4522705,15.33165,-2.3077393,-0.017044067,-0.44734192,0.06010437,10.60250683,76.11171379,10.03
22-02-2019 4.47,1.55E+12,-5.7933655,7.9862366,6.112671,-0.71585083,0.23548889,-0.114608765,10.60250683,76.11171379,10.03
22-02-2019 4.47,1.55E+12,-0.11431885,8.065247,7.23555,-0.68496704,-0.52830505,0.07394409,10.60250683,76.11171379,10.03
22-02-2019 4.47,1.55E+12,-3.2842407,8.584793,9.012039,-0.07989502,0.051193237,-0.014465332,10.60250683,76.11171379,10.03
22-02-2019 4.47,1.55E+12,0.41000366,5.0916443,3.2276459,-0.16937256,-0.35572815,0.08566284,10.60250683,76.11171379,10.03
22-02-2019 4.47,1.55E+12,-2.644989,9.815414,7.659317,0.09375,0.011779785,4.43E-04,10.60250683,76.11171379,10.03
22-02-2019 4.47,1.55E+12,-2.6258392,-5.1723022,15.174713,-0.35153198,-0.3365631,0.08354187,10.60250683,76.11171379,10.03
22-02-2019 4.47,1.55E+12,2.0308838,14.845627,-7.670761,1.6341095,-0.09474182,0.13467407,10.60250683,76.11171379,10.03
22-02-2019 4.47,1.55E+12,-3.4350739,-7.5449524,22.972626,-0.16297913,-0.13948059,-0.06985474,10.60250683,76.11171379,10.03
22-02-2019 4.47,1.55E+12,-2.008133,-1.1811676,8.2387085,0.90760803,-0.019104004,0.01109314,10.60250683,76.11171379,10.03
22-02-2019 4.47,1.55E+12,0.5704193,8.230438,8.447006,1.2975006,-0.16078186,0.20603943,10.60250683,76.11171379,10.03
22-02-2019 4.47,1.55E+12,-2.8772278,-6.8506317,24.169739,-0.8543396,0.01071167,-0.1572113,10.60250683,76.11171379,10.03
22-02-2019 4.47,1.55E+12,1.5185242,18.96605,-4.3835144,1.1898956,-0.058517456,0.092056274,10.60250683,76.11171379,10.03
22-02-2019 4.47,1.55E+12,-1.7974396,0.1404419,19.532166,-1.3124084,-0.0382843,-0.065597534,10.60250683,76.11171379,10.03
22-02-2019 4.47,1.55E+12,0.541687,19.104904,-12.207764,0.33129883,-0.12350464,-0.007003784,10.60250683,76.11171379,10.03
22-02-2019 4.47,1.55E+12,-3.7630768,4.624771,8.526016,-1.2900391,-0.04786682,-0.1337738,10.60250683,76.11171379,10.03
22-02-2019 4.47,1.55E+12,-0.5931549,12.609436,-1.9127045,-0.40586853,-0.48356628,0.03666687,10.60250683,76.11171379,10.03
22-02-2019 4.47,1.55E+12,-4.3376923,8.342972,4.7551575,-0.4974823,0.027755737,-0.089035034,10.60250683,76.11171379,10.03
22-02-2019 4.47,1.55E+12,-1.9913788,3.2313538,7.4486237,-0.52197266,-0.5070038,0.026016235,10.60250683,76.11171379,10.03
22-02-2019 4.47,1.55E+12,-4.2514954,2.841095,5.159775,0.027694702,0.05758667,-0.020858765,10.60250683,76.11171379,10.03
22-02-2019 4.47,1.55E+12,-0.24360657,4.433243,6.574753,0.21517944,-0.4920807,0.0899353,10.60250683,76.11171379,10.03
22-02-2019 4.47,1.55E+12,-3.0663757,6.260025,0.8382416,0.255661,0.07463074,-0.11354065,10.60250683,76.11171379,10.03
22-02-2019 4.47,1.55E+12,-1.0648193,0.23860168,16.88417,-0.03515625,-0.30033875,0.020690918,10.60250683,76.11171379,10.03
22-02-2019 4.47,1.55E+12,-1.0624237,2.4316864,15.488358,0.13955688,-0.00100708,-0.04322815,10.60250683,76.11171379,10.03
22-02-2019 4.47,1.55E+12,-1.0145416,6.501831,8.013657,0.33343506,0.007522583,-0.026184082,10.60250683,76.11171379,10.03
22-02-2019 4.47,1.55E+12,1.7244263,8.022156,6.58432,0.080963135,-0.12564087,-0.07199097,10.60250683,76.11171379,10.03
22-02-2019 4.47,1.55E+12,1.8800507,8.002991,2.80867,-0.31958008,0.0554657,-0.1529541,10.60250683,76.11171379,10.03
22-02-2019 4.47,1.55E+12,2.56958,13.346848,-4.859955,0.2972107,0.028823853,-0.001678467,10.60250683,76.11171379,10.03
22-02-2019 4.47,1.55E+12,-0.6290741,3.5737305,15.33992,-0.6636658,-0.016983032,-0.102890015,10.60250683,76.11171379,10.03
22-02-2019 4.47,1.55E+12,0.15382385,4.876175,11.1835785,0.07350159,-0.021240234,0.017486572,10.60250683,76.11171379,10.03
22-02-2019 4.47,1.55E+12,1.561615,10.083557,8.475739,0.054336548,0.054397583,0.044128418,10.60250683,76.11171379,10.03
22-02-2019 4.47,1.55E+12,-2.5324707,3.8299103,13.819595,-0.2972107,0.052261353,-0.17106628,10.60250683,76.11171379,10.03
22-02-2019 4.47,1.55E+12,3.984558,13.219955,-4.1824036,0.18215942,-0.1639862,0.004699707,10.60250683,76.11171379,10.03
22-02-2019 4.47,1.55E+12,0.2519989,11.958221,-2.3245087,-0.29614258,0.14601135,-0.040039062,10.60250683,76.11171379,10.03
22-02-2019 4.47,1.55E+12,3.941452,2.6854706,6.572357,-0.9480896,-0.24707031,-0.07092285,10.60250683,76.11171379,10.03
22-02-2019 4.47,1.55E+12,-2.4223328,12.346085,-0.51927185,0.37071228,0.29408264,-0.011276245,10.60250683,76.11171379,10.03
22-02-2019 4.47,1.55E+12,0.90800476,-3.4843903,19.800308,-0.74035645,-0.28648376,0.02494812,10.60250683,76.11171379,10.03
22-02-2019 4.47,1.55E+12,-2.7263947,8.005386,1.3529968,0.8585968,0.22802734,-0.017669678,10.60250683,76.11171379,10.03
22-02-2019 4.47,1.55E+12,4.324524,7.9742737,13.604126,-0.051132202,-0.2896881,0.12402344,10.60250683,76.11171379,10.03
22-02-2019 4.47,1.55E+12,-3.605072,-0.3288269,11.025574,-0.18855286,0.3622589,-0.07199097,10.60250683,76.11171379,10.03
22-02-2019 4.47,1.55E+12,3.7187958,13.885544,1.8677521,0.8447571,-0.22470093,0.17408752,10.60250683,76.11171379,10.03
22-02-2019 4.47,1.55E+12,-4.021652,-5.6511383,22.402817,-1.1643372,0.17263794,-0.15081787,10.60250683,76.11171379,10.03
22-02-2019 4.47,1.55E+12,0.39804077,14.8983,-0.65335083,1.0088043,-0.23109436,0.10697937,10.60250683,76.11171379,10.03
22-02-2019 4.47,1.55E+12,-2.0727844,2.082138,19.979874,-0.8532715,-0.15866089,-0.002746582,10.60250683,76.11171379,10.03
22-02-2019 4.47,1.55E+12,-1.2683258,5.1347504,6.7088165,0.2790985,-0.17782593,0.07287598,10.60250683,76.11171379,10.03
22-02-2019 4.47,1.55E+12,2.9478607,14.1489105,-4.476883,0.7275696,-0.16612244,0.14958191,10.60250683,76.11171379,10.03
22-02-2019 4.47,1.55E+12,-4.586685,0.42774963,16.85785,-0.44421387,-0.044677734,-0.025115967,10.60250683,76.11171379,10.03
22-02-2019 4.47,1.55E+12,2.80661,7.730057,6.00972,0.50920105,-0.274765,0.15171814,10.60250683,76.11171379,10.03
22-02-2019 4.47,1.55E+12,-3.1142578,0.9185486,19.812286,0.014907837,0.14387512,0.02708435,10.60250683,76.11171379,10.03
22-02-2019 4.47,1.55E+12,1.367691,1.311203,18.871368,0.16618347,-0.23002625,0.068618774,10.60250683,76.11171379,10.03
22-02-2019 4.47,1.55E+12,1.561615,7.026169,0.5485382,0.54115295,0.1928711,0.056900024,10.60250683,76.11171379,10.03
22-02-2019 4.47,1.55E+12,5.047577,17.13208,0.5413513,0.4548645,-0.15440369,0.043060303,10.60250683,76.11171379,10.03
22-02-2019 4.47,1.55E+12,0.24720764,-2.5721893,9.234711,-0.85647583,0.2322998,-0.19876099,10.60250683,76.11171379,10.03
22-02-2019 4.47,1.55E+12,7.0180054,17.855133,-12.528595,1.1046753,0.004333496,0.101638794,10.60250683,76.11171379,10.03
22-02-2019 4.47,1.55E+12,-3.9210968,-8.675018,27.806519,-1.1760559,0.38674927,-0.3297882,10.60250683,76.11171379,10.03
22-02-2019 4.47,1.55E+12,2.1434174,0.4588623,15.229782,0.7201233,-0.15226746,-0.003814697,10.60250683,76.11171379,10.03
22-02-2019 4.47,1.55E+12,-1.1725616,4.9025116,11.288925,0.9502106,0.33242798,0.061172485,10.60250683,76.11171379,10.03
22-02-2019 4.47,1.55E+12,1.8153992,-8.227295,29.927795,-0.74461365,-0.28862,0.044128418,10.60250683,76.11171379,10.03
22-02-2019 4.47,1.55E+12,1.8417358,13.4953,-6.34198,1.3326416,0.4165802,0.08354187,10.60250683,76.11171379,10.03
22-02-2019 4.47,1.55E+12,9.282928,14.038773,-2.7027893,0.041549683,-0.2183075,0.082473755,10.60250683,76.11171379,10.03
22-02-2019 4.47,1.55E+12,-5.893921,-5.4045258,20.473083,-0.5049286,0.5667877,-0.3990326,10.60250683,76.11171379,10.03
22-02-2019 4.47,1.55E+12,8.586212,3.940033,9.526794,0.6785736,-0.48143005,0.12295532,10.60250683,76.11171379,10.03
22-02-2019 4.47,1.55E+12,-5.9705353,2.300003,22.211273,0.539032,0.7414856,-0.08157349,10.60250683,76.11171379,10.03
22-02-2019 4.47,1.55E+12,4.779434,-5.3350983,23.372467,-0.19920349,-0.4611969,0.047317505,10.60250683,76.11171379,10.03
22-02-2019 4.47,1.55E+12,-1.2922668,11.290237,7.4127197,1.019455,0.5614624,-0.008071899,10.60250683,76.11171379,10.03
22-02-2019 4.47,1.55E+12,10.49678,8.534515,8.509262,0.16511536,-0.4058075,0.12081909,10.60250683,76.11171379,10.03
22-02-2019 4.47,1.55E+12,-0.83018494,8.002991,8.470947,0.2705841,0.77557373,-0.3052826,10.60250683,76.11171379,10.03
22-02-2019 4.47,1.55E+12,9.575012,10.334946,8.181259,0.09693909,-0.32910156,0.06329346,10.60250683,76.11171379,10.03
22-02-2019 4.47,1.55E+12,0.7978668,5.1515045,8.262665,-0.5518036,0.84802246,-0.2552185,10.60250683,76.11171379,10.03
22-02-2019 4.47,1.55E+12,8.126526,18.305252,-2.437027,0.45700073,-0.10752869,0.033462524,10.60250683,76.11171379,10.03
22-02-2019 4.47,1.55E+12,2.418747,-0.28094482,15.919312,-1.6532898,0.7137909,-0.33937073,10.60250683,76.11171379,10.03
22-02-2019 4.47,1.55E+12,9.220673,24.549332,-13.134323,1.434906,0.05758667,0.12828064,10.60250683,76.11171379,10.03
22-02-2019 4.47,1.55E+12,2.1338348,-10.279129,27.847229,-1.944107,0.67970276,-0.30316162,10.60250683,76.11171379,10.03
22-02-2019 4.47,1.55E+12,7.700348,16.85196,-0.6222229,1.7480927,0.0831604,0.08459473,10.60250683,76.11171379,10.03
22-02-2019 4.47,1.55E+12,3.4434662,-0.96328735,14.561798,-0.6178589,0.7414856,-0.18278503,10.60250683,76.11171379,10.03
22-02-2019 4.47,1.55E+12,7.549515,13.950195,-0.41871643,0.8309021,0.105529785,0.019622803,10.60250683,76.11171379,10.03
22-02-2019 4.47,1.55E+12,3.5703583,-1.851532,19.718918,-0.7201233,0.6850281,-0.2637329,10.60250683,76.11171379,10.03
22-02-2019 4.47,1.55E+12,5.483322,10.868851,6.1820984,0.83303833,0.17903137,-0.016601562,10.60250683,76.11171379,10.03
22-02-2019 4.47,1.55E+12,3.3022003,2.6423798,11.626511,-0.07136536,0.55293274,-0.22113037,10.60250683,76.11171379,10.03
22-02-2019 4.47,1.55E+12,5.236725,6.1594543,11.176407,0.23754883,0.01071167,-0.13484192,10.60250683,76.11171379,10.03
22-02-2019 4.47,1.55E+12,3.8169556,6.3414154,6.960205,0.16085815,0.4677124,-0.17745972,10.60250683,76.11171379,10.03
22-02-2019 4.47,1.55E+12,3.5607758,7.107559,6.007324,0.10652161,0.04374695,-0.008071899,10.60250683,76.11171379,10.03
22-02-2019 4.47,1.55E+12,1.7028809,6.6981506,8.442215,0.15020752,0.30473328,-0.08477783,10.60250683,76.11171379,10.03
22-02-2019 4.47,1.55E+12,0.77153015,-2.5602264,23.204865,-0.6274414,-0.07450867,0.035598755,10.60250683,76.11171379,10.03
22-02-2019 4.47,1.55E+12,0.9295502,14.4170685,-6.464081,1.0865784,0.17263794,0.13040161,10.60250683,76.11171379,10.03
22-02-2019 4.47,1.55E+12,-1.3018494,-3.7309875,24.344513,-1.5009613,-0.19914246,-0.014465332,10.60250683,76.11171379,10.03
22-02-2019 4.47,1.55E+12,-0.86131287,8.496201,-1.3045654,0.46125793,-0.04574585,0.105911255,10.60250683,76.11171379,10.03
22-02-2019 4.47,1.55E+12,2.1577759,11.314178,4.831772,0.06071472,-0.25027466,0.15171814,10.60250683,76.11171379,10.03
22-02-2019 4.47,1.55E+12,-3.8804016,-0.7957001,9.349625,-0.22050476,0.00112915,0.03453064,10.60250683,76.11171379,10.03
22-02-2019 4.47,1.55E+12,2.4019928,1.5554047,16.094086,0.092681885,-0.38130188,0.18687439,10.60250683,76.11171379,10.03
22-02-2019 4.47,1.55E+12,-5.7574463,3.3462677,11.276962,0.81918335,0.103393555,0.105911255,10.60250683,76.11171379,10.03
22-02-2019 4.47,1.55E+12,1.7723083,0.5139313,21.31105,-0.0234375,-0.52297974,0.14958191,10.60250683,76.11171379,10.03
22-02-2019 4.47,1.55E+12,-6.5571136,1.8642578,8.454193,1.0546112,0.18222046,0.094192505,10.60250683,76.11171379,10.03
22-02-2019 4.47,1.55E+12,6.960541,2.4197235,16.292816,0.22050476,-0.733902,0.24012756,10.60250683,76.11171379,10.03
22-02-2019 4.47,1.55E+12,-9.660004,1.7996216,13.6974945,0.9938965,0.49435425,0.014297485,10.60250683,76.11171379,10.03
22-02-2019 4.47,1.55E+12,9.318832,2.1826935,19.338242,0.21731567,-0.9064789,0.28060913,10.60250683,76.11171379,10.03
22-02-2019 4.47,1.55E+12,-11.091736,0.27212524,6.366455,1.0705872,0.6594696,-0.09010315,10.60250683,76.11171379,10.03
22-02-2019 4.47,1.55E+12,9.163208,1.129242,19.592026,-0.018112183,-1.1056824,0.24758911,10.60250683,76.11171379,10.03
22-02-2019 4.47,1.55E+12,-10.469238,2.8865814,6.7758636,0.6732483,0.5987396,-0.112472534,10.60250683,76.11171379,10.03
22-02-2019 4.47,1.55E+12,9.407425,10.935898,6.00972,0.34727478,-0.92352295,0.2657013,10.60250683,76.11171379,10.03
22-02-2019 4.47,1.55E+12,-8.625702,-1.6863403,15.861847,-0.36964417,0.5348358,-0.13909912,10.60250683,76.11171379,10.03
22-02-2019 4.47,1.55E+12,6.8408356,6.592819,11.66243,0.58909607,-0.69981384,0.16343689,10.60250683,76.11171379,10.03
22-02-2019 4.47,1.55E+12,-5.0535583,5.1634674,-2.7075806,0.43675232,0.45706177,-0.11779785,10.60250683,76.11171379,10.03
22-02-2019 4.47,1.55E+12,6.4601593,7.177002,6.5220795,-0.28123474,-0.6518707,0.08566284,10.60250683,76.11171379,10.03
22-02-2019 4.47,1.55E+12,-5.4270477,2.015091,9.215546,-0.44314575,0.40592957,-0.16574097,10.60250683,76.11171379,10.03
22-02-2019 4.47,1.55E+12,5.8639984,8.09877,5.35849,0.102264404,-0.48356628,0.11868286,10.60250683,76.11171379,10.03
22-02-2019 4.47,1.55E+12,-5.0535583,0.91137695,11.7174835,-0.3802948,0.3580017,-0.089035034,10.60250683,76.11171379,10.03
22-02-2019 4.47,1.55E+12,3.000534,-2.6176758,19.57286,-0.18748474,-0.4462738,0.17834473,10.60250683,76.11171379,10.03
22-02-2019 4.47,1.55E+12,-2.0943298,11.093918,-1.5727234,0.97792053,0.22802734,0.13467407,10.60250683,76.11171379,10.03
22-02-2019 4.47,1.55E+12,3.7738647,3.7915955,5.0903473,-0.50387573,-0.29927063,0.17408752,10.60250683,76.11171379,10.03
22-02-2019 4.47,1.55E+12,-2.58992,-0.9800415,22.77391,-0.29081726,0.21418762,0.052642822,10.60250683,76.11171379,10.03
22-02-2019 4.47,1.55E+12,3.1441956,3.509079,16.759674,0.55500793,-0.15013123,0.11656189,10.60250683,76.11171379,10.03
22-02-2019 4.47,1.55E+12,-1.8285675,6.4276123,12.201126,0.82025146,0.29515076,-0.011276245,10.60250683,76.11171379,10.03
22-02-2019 4.47,1.55E+12,3.8768158,2.0174866,14.691086,0.010650635,-0.23002625,0.11123657,10.60250683,76.11171379,10.03
22-02-2019 4.47,1.55E+12,0.6326752,13.102646,-8.463242,0.6178589,0.35586548,-0.04748535,10.60250683,76.11171379,10.03
22-02-2019 4.47,1.55E+12,4.22876,11.484161,13.307236,-0.71691895,-0.28648376,0.0664978,10.60250683,76.11171379,10.03
22-02-2019 4.47,1.55E+12,-2.4319,2.9057465,5.928314,-0.81385803,0.37930298,-0.1337738,10.60250683,76.11171379,10.03
22-02-2019 4.47,1.55E+12,2.9167328,13.461777,1.4343872,0.34088135,-0.18103027,0.010040283,10.60250683,76.11171379,10.03
22-02-2019 4.47,1.55E+12,-2.6809082,-5.392563,17.173874,-1.036499,0.12257385,-0.061340332,10.60250683,76.11171379,10.03
22-02-2019 4.47,1.55E+12,2.3229828,12.24791,-5.527939,1.6277313,-0.16291809,0.053710938,10.60250683,76.11171379,10.03
22-02-2019 4.47,1.55E+12,-1.7543488,1.6104736,16.850662,0.5059967,-0.006332398,0.07287598,10.60250683,76.11171379,10.03
22-02-2019 4.47,1.55E+12,0.34536743,-9.831406,26.539993,-0.6402283,0.003265381,0.1250763,10.60250683,76.11171379,10.03
22-02-2019 4.47,1.55E+12,-2.882019,10.05722,6.8261414,1.6362457,0.15559387,0.010040283,10.60250683,76.11171379,10.03
22-02-2019 4.47,1.55E+12,1.5448608,-3.886612,20.099594,-0.6263733,-0.26306152,4.43E-04,10.60250683,76.11171379,10.03
22-02-2019 4.47,1.55E+12,-3.1741028,6.06369,4.587555,0.94595337,0.18222046,0.047317505,10.60250683,76.11171379,10.03
22-02-2019 4.47,1.55E+12,4.834488,6.6454773,6.129425,0.13742065,-0.35253906,0.11230469,10.60250683,76.11171379,10.03
22-02-2019 4.47,1.55E+12,-2.9897614,5.4675293,8.928238,-0.019180298,0.3846283,-0.09436035,10.60250683,76.11171379,10.03
22-02-2019 4.47,1.55E+12,5.095459,6.5664825,9.067108,-0.14274597,-0.23535156,0.080337524,10.60250683,76.11171379,10.03
22-02-2019 4.47,1.55E+12,0.888855,13.267853,-4.6277313,-0.33555603,0.43894958,-0.16467285,10.60250683,76.11171379,10.03
22-02-2019 4.47,1.55E+12,0.58717346,6.0253906,3.1079407,-0.7978821,0.0554657,-0.09223938,10.60250683,76.11171379,10.03
22-02-2019 4.47,1.55E+12,2.9861755,8.048492,11.60257,-0.8490143,0.0320282,-0.0357666,10.60250683,76.11171379,10.03
22-02-2019 4.47,1.55E+12,-2.3648682,9.056442,3.5580444,0.1768341,0.32710266,-0.24989319,10.60250683,76.11171379,10.03
22-02-2019 4.47,1.55E+12,3.1800995,11.0412445,-0.014099121,-0.2237091,-0.17677307,-0.15188599,10.60250683,76.11171379,10.03
22-02-2019 4.47,1.55E+12,-6.463745,-0.41262817,26.58548,-1.1408997,0.18009949,-0.13484192,10.60250683,76.11171379,10.03
22-02-2019 4.47,1.55E+12,6.850418,18.657196,-23.75261,0.36964417,-0.1671753,0.103775024,10.60250683,76.11171379,10.03
22-02-2019 4.47,1.55E+12,-4.356842,18.72902,-2.5327911,-1.179245,0.3931427,-0.16360474,10.60250683,76.11171379,10.03
22-02-2019 4.47,1.55E+12,2.8568878,-9.321442,14.229004,-3.0115051,-0.4611969,-0.062408447,10.60250683,76.11171379,10.03
22-02-2019 4.47,1.55E+12,-1.0408783,17.895844,-22.519592,2.2477112,0.5465393,0.20603943,10.60250683,76.11171379,10.03
22-02-2019 4.47,1.55E+12,3.565567,-20.456879,37.79274,-0.3760376,-0.57092285,0.1687622,10.60250683,76.11171379,10.03
22-02-2019 4.47,1.55E+12,-4.9434204,-15.950989,25.809769,1.4136047,0.5284424,-0.040039062,10.60250097,76.11123301,10.62
22-02-2019 4.47,1.55E+12,9.962875,37.07579,-24.916183,4.3729095,-0.05319214,0.27209473,10.60250097,76.11123301,10.62
22-02-2019 4.47,1.55E+12,-5.6544952,-28.410416,38.791122,-5.3167267,0.2823639,-0.4789276,10.60250097,76.11123301,10.62
22-02-2019 4.47,1.55E+12,5.193619,48.800186,-41.72827,0.78616333,0.13748169,0.033462524,10.60250097,76.11123301,10.62
22-02-2019 4.47,1.55E+12,-0.31782532,21.685852,-10.761673,-2.8751526,-0.04786682,-0.2594757,10.60250097,76.11123301,10.62
22-02-2019 4.47,1.55E+12,0.49620056,2.5585785,9.464554,-4.7830353,-0.20446777,-0.16999817,10.60250097,76.11123301,10.62
22-02-2019 4.47,1.55E+12,-4.316147,26.076828,-11.863007,1.3315887,0.20993042,0.11442566,10.60250097,76.11123301,10.62
22-02-2019 4.47,1.55E+12,2.9718018,-3.5753632,18.631943,-2.275406,-0.6337738,0.15597534,10.60250097,76.11123301,10.62
22-02-2019 4.47,1.55E+12,-3.0903168,22.88536,-9.780045,1.6809845,0.42936707,-6.26E-04,10.60250097,76.11123301,10.62
22-02-2019 4.47,1.55E+12,4.039627,-16.374771,30.011581,-1.544632,-0.32377625,0.045181274,10.60250097,76.11123301,10.62
22-02-2019 4.47,1.55E+12,-3.4566193,10.969406,0.6490936,2.1475677,0.5156555,-0.06452942,10.60250097,76.11123301,10.62
22-02-2019 4.47,1.55E+12,4.008499,-1.3320007,15.153168,0.5997467,-0.22257996,0.12188721,10.60250097,76.11123301,10.62
22-02-2019 4.47,1.55E+12,-1.5364685,2.458023,4.2332153,0.42610168,0.42510986,-0.061340332,10.60250097,76.11123301,10.62
22-02-2019 4.47,1.55E+12,4.3628387,-3.2808685,18.71814,0.28762817,-0.17996216,0.05050659,10.60250097,76.11123301,10.62
22-02-2019 4.47,1.55E+12,-3.040039,-0.35276794,15.292038,0.45167542,0.3611908,-0.05281067,10.60250097,76.11123301,10.62
22-02-2019 4.47,1.55E+12,3.7930145,10.7659,2.0425262,1.1408997,-0.04147339,0.08886719,10.60250097,76.11123301,10.62
22-02-2019 4.47,1.55E+12,-2.7144165,-6.2568665,25.330917,-1.0929565,0.236557,0.01322937,10.60250097,76.11123301,10.62
22-02-2019 4.47,1.55E+12,6.0770874,24.290756,-18.406357,0.96939087,-0.012710571,0.15065002,10.60250097,76.11123301,10.62
22-02-2019 4.47,1.55E+12,-4.4573975,9.791458,2.2412415,-1.5979004,0.27490234,-0.24031067,10.60250097,76.11123301,10.62
22-02-2019 4.47,1.55E+12,3.8983612,11.709213,-4.5702667,-1.831192,-0.4846344,-0.0357666,10.60250097,76.11123301,10.62
22-02-2019 4.47,1.55E+12,-5.731125,11.457825,-9.282059,-0.22157288,0.4677124,-0.11886597,10.60250097,76.11123301,10.62
22-02-2019 4.47,1.55E+12,5.0308228,11.4721985,3.0552673,-1.0450287,-0.7168579,0.08140564,10.60250097,76.11123301,10.62
22-02-2019 4.47,1.55E+12,-11.788452,1.5985107,9.493271,-0.96832275,0.6775665,-0.24563599,10.60250097,76.11123301,10.62
22-02-2019 4.47,1.55E+12,5.430649,10.660553,8.511658,-0.41758728,-0.9373627,0.23373413,10.60250097,76.11123301,10.62
22-02-2019 4.47,1.55E+12,-11.455658,0.13085938,12.799667,-0.54434204,0.6733093,-0.25308228,10.60250097,76.11123301,10.62
22-02-2019 4.47,1.55E+12,5.0260315,9.276718,1.4583435,0.2833557,-0.8457489,0.15490723,10.60250097,76.11123301,10.62
22-02-2019 4.47,1.55E+12,-8.8172455,6.5305634,8.715164,-0.10865784,0.47943115,-0.089035034,10.60250097,76.11123301,10.62
22-02-2019 4.47,1.55E+12,4.5352173,12.796188,-16.507751,0.302536,-0.7903595,0.18687439,10.60250097,76.11123301,10.62
22-02-2019 4.47,1.55E+12,-6.2961426,9.032501,2.303482,-1.1654053,0.3888855,-0.16467285,10.60250097,76.11123301,10.62
22-02-2019 4.47,1.55E+12,-0.39923096,-6.721344,25.472183,-1.7640839,-0.82658386,-0.07305908,10.60250097,76.11123301,10.62
22-02-2019 4.47,1.55E+12,-3.5308533,11.383606,-20.65451,2.136917,0.33561707,-0.041107178,10.60250097,76.11123301,10.62
22-02-2019 4.47,1.55E+12,5.289398,-7.966324,22.002975,0.03515625,-0.6550751,0.14425659,10.60250097,76.11123301,10.62
22-02-2019 4.47,1.55E+12,-9.578598,-16.64531,19.55371,-0.13102722,0.69355774,0.026016235,10.60250097,76.11123301,10.62
22-02-2019 4.47,1.55E+12,7.767395,33.237885,-14.314667,2.3467712,-0.684906,0.3945923,10.60250097,76.11123301,10.62
22-02-2019 4.47,1.55E+12,-2.3265686,13.049973,14.664749,-2.2061615,0.16838074,-0.2509613,10.60250097,76.11123301,10.62
22-02-2019 4.47,1.55E+12,0.65901184,-3.690277,7.944229,-3.5569153,0.283432,-0.1763916,10.60250097,76.11123301,10.62
22-02-2019 4.47,1.55E+12,4.975754,52.111374,-39.037186,4.014984,-0.16291809,0.32641602,10.60250097,76.11123301,10.62
22-02-2019 4.47,1.55E+12,4.568741,-21.134445,38.43918,-4.7255096,0.22270203,-0.16893005,10.60250097,76.11123301,10.62
22-02-2019 4.47,1.55E+12,9.184753,30.415115,-26.826767,4.250412,0.12257385,0.12402344,10.60250097,76.11123301,10.62
22-02-2019 4.47,1.55E+12,-1.2635345,-12.958237,30.483246,-1.2058716,0.7670593,-0.1295166,10.60250097,76.11123301,10.62
22-02-2019 4.47,1.55E+12,5.265457,-11.239197,30.729843,0.024505615,-0.13735962,-0.062408447,10.60250097,76.11123301,10.62
22-02-2019 4.47,1.55E+12,-1.2659302,17.07463,-6.564636,2.342514,0.6669159,-0.09649658,10.60250097,76.11123301,10.62
22-02-2019 4.47,1.55E+12,3.565567,-10.281525,29.73146,-2.179535,-0.45054626,0.006835938,10.60250097,76.11123301,10.62
22-02-2019 4.47,1.55E+12,-5.0942535,9.82019,0.8669739,1.0428925,0.42085266,-0.008071899,10.60250097,76.11123301,10.62
22-02-2019 4.47,1.55E+12,5.394745,-3.9847717,18.071701,-0.76379395,-0.5805054,0.2273407,10.60250097,76.11123301,10.62
22-02-2019 4.47,1.55E+12,-3.629013,16.586212,-12.09285,1.2410278,0.32817078,0.037734985,10.60250097,76.11123301,10.62
22-02-2019 4.47,1.55E+12,0.6494293,-1.9927979,15.924103,-1.7086792,-0.48356628,-0.0315094,10.60250097,76.11123301,10.62
22-02-2019 4.47,1.55E+12,-5.518036,8.785904,3.2922974,-0.18322754,0.002197266,-6.26E-04,10.60250097,76.11123301,10.62
22-02-2019 4.47,1.55E+12,0.17538452,5.8314514,11.322449,-0.33129883,-0.42922974,0.12402344,10.60250097,76.11123301,10.62
22-02-2019 4.47,1.55E+12,-5.096649,6.157074,5.765503,0.19494629,-0.22576904,0.06542969,10.60250097,76.11123301,10.62
22-02-2019 4.47,1.55E+12,0.2567749,1.5601959,7.8795776,-0.10333252,-0.40153503,0.15704346,10.60250097,76.11123301,10.62
22-02-2019 4.47,1.55E+12,-5.3480377,10.33255,6.2227936,0.3440857,-0.117111206,0.22628784,10.60250097,76.11123301,10.62
22-02-2019 4.47,1.55E+12,0.16819763,4.0717163,16.675888,-0.43995667,-0.37384033,0.1485138,10.60250097,76.11123301,10.62
22-02-2019 4.47,1.55E+12,-4.316147,8.311844,-0.25352478,0.36857605,0.04586792,0.03666687,10.60250097,76.11123301,10.62
22-02-2019 4.47,1.55E+12,5.545578,6.1546783,12.648834,-0.4239807,-0.5613251,0.15490723,10.60250097,76.11123301,10.62
22-02-2019 4.47,1.55E+12,-7.33284,-2.6128998,10.046341,-0.11505127,0.34947205,-0.049621582,10.60250097,76.11123301,10.62
22-02-2019 4.47,1.55E+12,6.982086,6.731674,11.4206085,0.7712555,-0.6284332,0.25398254,10.60250097,76.11123301,10.62
22-02-2019 4.47,1.55E+12,-10.299255,4.868988,10.585037,1.0333099,0.55081177,-0.06880188,10.60250097,76.11123301,10.62
22-02-2019 4.47,1.55E+12,5.9669495,-5.3207397,25.910324,-0.56777954,-0.8968811,0.16555786,10.60250097,76.11123301,10.62
22-02-2019 4.47,1.55E+12,-6.3200836,15.104202,-4.907852,1.3092041,0.4357605,0.018554688,10.60250097,76.11123301,10.62
22-02-2019 4.47,1.55E+12,1.695694,-0.38868713,16.874603,-1.0183868,-0.5730438,-0.011276245,10.60250097,76.11123301,10.62
22-02-2019 4.47,1.55E+12,-4.7925873,15.767395,-9.48317,0.6593933,0.052261353,-0.053878784,10.60250097,76.11123301,10.62
22-02-2019 4.47,1.55E+12,0.75717163,3.1212158,14.336746,-1.2527466,-0.49847412,0.052642822,10.60250097,76.11123301,10.62
22-02-2019 4.47,1.55E+12,-6.578659,8.522537,1.4583435,-0.12783813,-0.093673706,-0.018722534,10.60250097,76.11123301,10.62
22-02-2019 4.47,1.55E+12,0.22805786,1.548233,10.565872,-0.49641418,-0.40473938,0.021743774,10.60250097,76.11123301,10.62
22-02-2019 4.47,1.55E+12,-6.324875,6.1594543,6.9147186,0.32810974,-0.12989807,-0.038970947,10.60250097,76.11123301,10.62
22-02-2019 4.47,1.55E+12,-0.2747345,1.1244507,9.601013,-0.07136536,-0.37490845,0.026016235,10.60250097,76.11123301,10.62
22-02-2019 4.47,1.55E+12,-3.8875885,12.24791,-3.7107391,0.6956177,-0.12882996,0.03666687,10.60250097,76.11123301,10.62
22-02-2019 4.47,1.55E+12,-1.5269012,0.080581665,19.359787,-1.1100006,-0.36532593,-0.09649658,10.60250097,76.11123301,10.62
22-02-2019 4.47,1.55E+12,-3.5763397,10.1601715,-2.899109,0.17576599,-0.06704712,-0.003814697,10.60250097,76.11123301,10.62
22-02-2019 4.47,1.55E+12,0.30467224,9.602325,7.132599,-0.37922668,-0.31951904,-0.036834717,10.60250097,76.11123301,10.62
22-02-2019 4.47,1.55E+12,-6.9785004,1.0286865,11.377518,-0.48895264,-0.13308716,-0.1486969,10.60250097,76.11123301,10.62
22-02-2019 4.47,1.55E+12,2.703659,6.710129,7.659317,0.43249512,-0.4878235,0.12295532,10.60250097,76.11123301,10.62
22-02-2019 4.47,1.55E+12,-5.5156403,4.9336243,10.441376,0.34727478,0.030960083,-0.015533447,10.60250097,76.11123301,10.62
22-02-2019 4.47,1.55E+12,1.2072754,-1.930542,15.366257,-0.19281006,-0.45159912,0.019622803,10.60250097,76.11123301,10.62
22-02-2019 4.47,1.55E+12,-5.012863,9.846527,-0.7682648,1.0514221,0.002197266,0.029205322,10.60250097,76.11123301,10.62
22-02-2019 4.47,1.55E+12,2.1410217,1.7804718,14.762909,-0.5794983,-0.5868988,0.02281189,10.60250097,76.11123301,10.62
22-02-2019 4.47,1.55E+12,-4.96019,7.4164124,0.38572693,0.37496948,0.09806824,-0.017669678,10.60250097,76.11123301,10.62
22-02-2019 4.47,1.55E+12,3.8911743,6.8585663,7.010483,-0.31105042,-0.53256226,0.13360596,10.60250097,76.11123301,10.62
22-02-2019 4.47,1.55E+12,-5.846039,-0.24742126,14.236191,-0.47084045,0.09913635,-0.01020813,10.60250097,76.11123301,10.62
22-02-2019 4.47,1.55E+12,3.4889526,7.584015,8.772629,0.5017395,-0.45373535,0.24333191,10.60250097,76.11123301,10.62
22-02-2019 4.47,1.55E+12,-3.2722778,9.073212,1.1997681,0.24821472,0.14601135,0.05583191,10.60250097,76.11123301,10.62
22-02-2019 4.47,1.55E+12,2.8951874,5.7572327,10.618546,-0.4037323,-0.40792847,0.07394409,10.60250097,76.11123301,10.62
22-02-2019 4.47,1.55E+12,-1.68013,8.395645,4.6091003,-0.26737976,0.1300354,-0.04536438,10.60250097,76.11123301,10.62
22-02-2019 4.47,1.55E+12,3.0484161,11.742737,-1.8145447,0.17897034,-0.17037964,0.06329346,10.60250097,76.11123301,10.62
22-02-2019 4.47,1.55E+12,-0.74398804,6.5305634,10.800507,-0.58695984,0.09913635,-0.10928345,10.60250097,76.11123301,10.62
22-02-2019 4.47,1.55E+12,2.1481934,4.888138,7.834091,-0.09373474,-0.040420532,0.007904053,10.60250097,76.11123301,10.62
22-02-2019 4.47,1.55E+12,0.5392914,7.9575043,8.468552,0.036224365,0.13536072,0.016418457,10.60250097,76.11123301,10.62
22-02-2019 4.47,1.55E+12,-0.07122803,4.9456024,11.521164,-0.20559692,0.02243042,-0.053878784,10.60250097,76.11123301,10.62
22-02-2019 4.47,1.55E+12,0.754776,6.5305634,10.412643,-0.02130127,0.02456665,-0.061340332,10.60250097,76.11123301,10.62
22-02-2019 4.47,1.55E+12,1.1977081,10.363678,5.911545,0.3206482,0.037353516,-0.015533447,10.60250097,76.11123301,10.62
22-02-2019 4.47,1.55E+12,2.6031036,5.6566772,4.836548,-0.22477722,0.027755737,-0.07305908,10.60250097,76.11123301,10.62
22-02-2019 4.47,1.55E+12,0.42677307,11.929489,-2.4514008,0.31318665,0.16838074,-0.058151245,10.60250097,76.11123301,10.62
22-02-2019 4.47,1.55E+12,2.5432434,3.3343048,12.007187,-0.69454956,-0.09687805,-0.061340332,10.60250097,76.11123301,10.62
22-02-2019 4.47,1.55E+12,0.70210266,11.393188,0.57247925,0.43675232,0.22483826,-0.0592041,10.60250097,76.11123301,10.62
22-02-2019 4.47,1.55E+12,2.0691986,3.4659882,18.01184,-0.47616577,0.04800415,-0.0826416,10.60250097,76.11123301,10.62
22-02-2019 4.47,1.55E+12,0.036514282,1.3997955,10.721497,0.07563782,0.18435669,-0.017669678,10.60250097,76.11123301,10.62
22-02-2019 4.47,1.55E+12,3.6589355,11.285446,0.10321045,0.45593262,0.0597229,0.032409668,10.60250097,76.11123301,10.62
22-02-2019 4.47,1.55E+12,-0.40402222,3.3175507,13.053452,-0.607193,0.10127258,-0.100753784,10.60250097,76.11123301,10.62
22-02-2019 4.47,1.55E+12,2.41156,8.659012,-1.3740082,0.20133972,0.09060669,-0.009140015,10.60250097,76.11123301,10.62
22-02-2019 4.47,1.55E+12,0.29988098,7.770752,7.7981873,-0.41438293,0.017105103,-0.042160034,10.60250097,76.11123301,10.62
22-02-2019 4.47,1.55E+12,-4.0575714,-5.131592,18.01184,-0.478302,0.004333496,-0.077316284,10.60250097,76.11123301,10.62
22-02-2019 4.47,1.55E+12,3.857666,6.0852356,8.971344,0.9065399,-0.29608154,0.18048096,10.60250097,76.11123301,10.62
22-02-2019 4.47,1.55E+12,-4.6585083,1.5721741,16.003113,0.6562042,0.24188232,-6.26E-04,10.60250097,76.11123301,10.62
22-02-2019 4.47,1.55E+12,4.1641235,0.4373169,14.722214,0.29614258,-0.43136597,0.15065002,10.60250097,76.11123301,10.62
22-02-2019 4.47,1.55E+12,-3.4733887,8.666183,2.2939148,1.0279846,0.29940796,0.047317505,10.60250097,76.11123301,10.62
22-02-2019 4.47,1.55E+12,3.5679626,1.0837555,18.435623,-0.49853516,-0.4931488,-0.003814697,10.60250097,76.11123301,10.62
22-02-2019 4.47,1.55E+12,-4.648941,9.054047,-4.3954926,0.72224426,0.28555298,-0.0741272,10.60250097,76.11123301,10.62
22-02-2019 4.47,1.55E+12,6.3260803,6.0852356,0.15588379,-0.44102478,-0.558136,0.07501221,10.60250097,76.11123301,10.62
22-02-2019 4.47,1.55E+12,-7.9409637,-3.5418396,27.471344,-0.71266174,0.1854248,-0.19662476,10.60250097,76.11123301,10.62
22-02-2019 4.47,1.55E+12,4.9877167,5.501053,8.767838,0.923584,-0.5304413,0.23905945,10.60250097,76.11123301,10.62
22-02-2019 4.47,1.55E+12,-6.0256042,1.9648132,18.83545,0.46125793,0.318573,0.06222534,10.60250097,76.11123301,10.62
22-02-2019 4.47,1.55E+12,2.7084503,-7.133148,21.303879,0.08415222,-0.43669128,0.094192505,10.60250097,76.11123301,10.62
22-02-2019 4.47,1.55E+12,2.7132263,22.533401,-11.968353,1.5957642,0.26211548,0.10803223,10.60250097,76.11123301,10.62
22-02-2019 4.47,1.55E+12,4.1497498,22.633957,-8.204666,-0.22050476,-0.081954956,-0.09223938,10.60250097,76.11123301,10.62
22-02-2019 4.47,1.55E+12,5.4258575,-5.476364,20.635895,-2.2402496,0.17050171,-0.3798523,10.60250097,76.11123301,10.62
22-02-2019 4.47,1.55E+12,5.071518,22.751282,-8.652374,1.4903107,0.43789673,0.16981506,10.60250097,76.11123301,10.62
22-02-2019 4.47,1.55E+12,4.8560486,-8.174622,27.847229,-1.8514252,0.5795746,-0.1614685,10.60250097,76.11123301,10.62
22-02-2019 4.47,1.55E+12,5.095459,19.813599,-1.7858124,1.8343811,0.2908783,-0.10394287,10.60250097,76.11123301,10.62
22-02-2019 4.47,1.55E+12,5.909485,-7.29834,22.611115,-0.8351593,0.588089,-0.1614685,10.60250097,76.11123301,10.62
22-02-2019 4.47,1.55E+12,8.444946,10.785065,3.3138428,1.2378387,0.2589264,0.0664978,10.60250097,76.11123301,10.62
22-02-2019 4.47,1.55E+12,3.692459,-4.5282593,18.933609,-0.007461548,0.88848877,-0.23391724,10.60250097,76.11123301,10.62
22-02-2019 4.47,1.55E+12,10.556641,7.0764465,5.0448456,0.99282837,0.0320282,0.005767822,10.60250097,76.11123301,10.62
22-02-2019 4.47,1.55E+12,-1.0145416,-0.13967896,15.387802,0.5347595,1.06427,-0.26054382,10.60250097,76.11123301,10.62
22-02-2019 4.47,1.55E+12,8.078644,-3.886612,23.49936,-0.22264099,-0.35040283,0.103775024,10.60250097,76.11123301,10.62
22-02-2019 4.47,1.55E+12,-3.3417053,11.55838,4.204483,1.3070831,0.8874359,-0.1103363,10.60250097,76.11123301,10.62
22-02-2019 4.47,1.55E+12,6.551132,-3.5538177,26.927856,-1.0013428,-0.57943726,0.11656189,10.60250097,76.11123301,10.62
22-02-2019 4.47,1.55E+12,-1.7687073,13.943008,-5.7553864,0.9289093,0.6115265,-0.007003784,10.60250097,76.11123301,10.62
22-02-2019 4.47,1.55E+12,4.7459106,5.6494904,13.333572,-0.76805115,-0.4143219,0.0899353,10.60250097,76.11123301,10.62
22-02-2019 4.47,1.55E+12,-1.1845245,7.8713226,1.0680847,-0.07775879,0.3143158,-0.0868988,10.60250097,76.11123301,10.62
22-02-2019 4.47,1.55E+12,4.063568,9.164185,2.4950256,0.008529663,-0.19593811,0.06542969,10.60250097,76.11123301,10.62
22-02-2019 4.47,1.55E+12,-1.8405457,0.48999023,13.034302,-0.28761292,0.18328857,-0.08370972,10.60250097,76.11123301,10.62
22-02-2019 4.47,1.55E+12,3.8121643,4.5242157,8.039993,0.3536682,-0.17037964,0.049453735,10.60250097,76.11123301,10.62
22-02-2019 4.47,1.55E+12,-1.6896973,7.806671,7.125412,0.42504883,0.33029175,-0.029388428,10.60250097,76.11123301,10.62
22-02-2019 4.47,1.55E+12,1.5711975,-2.4524841,20.650253,-0.73716736,-0.20979309,-0.018722534,10.60250097,76.11123301,10.62
22-02-2019 4.47,1.55E+12,-0.29148865,14.005264,-4.998825,0.6775055,0.22909546,-0.005950928,10.60250097,76.11123301,10.62
22-02-2019 4.47,1.55E+12,0.12271118,3.023056,15.191483,-0.970459,-0.20553589,-0.065597534,10.60250097,76.11123301,10.62
22-02-2019 4.47,1.55E+12,-1.0336914,8.362122,0.7831726,-0.03727722,-0.029754639,-0.05708313,10.60250097,76.11123301,10.62
22-02-2019 4.47,1.55E+12,1.1737671,9.255157,0.8095093,0.006393433,-0.13096619,0.043060303,10.60250097,76.11123301,10.62
22-02-2019 4.47,1.55E+12,-1.5819702,4.2512817,7.549179,-0.33129883,-0.089416504,-0.040039062,10.60250097,76.11123301,10.62
22-02-2019 4.47,1.55E+12,-0.557251,3.952011,10.415039,-0.088409424,-0.11817932,0.00151062,10.60250097,76.11123301,10.62
22-02-2019 4.47,1.55E+12,-0.9427185,6.884903,4.570801,0.21412659,-0.06704712,0.052642822,10.60250097,76.11123301,10.62
22-02-2019 4.47,1.55E+12,-0.720047,2.3718414,11.765381,-0.34727478,-0.1405487,-0.041107178,10.60250097,76.11123301,10.62
22-02-2019 4.47,1.55E+12,0.3429718,8.182556,6.3880005,0.14274597,-0.13841248,0.03666687,10.60250097,76.11123301,10.62
22-02-2019 4.47,1.55E+12,-0.32980347,6.255234,3.0217438,0.10333252,-0.019104004,0.041992188,10.60250097,76.11123301,10.62
22-02-2019 4.47,1.55E+12,-4.3305054,8.338181,15.232178,0.22157288,-0.17356873,0.06222534,10.60250097,76.11123301,10.62
22-02-2019 4.47,1.55E+12,-0.68414307,-4.379822,17.853836,-0.4271698,-0.2140503,0.08673096,10.60250097,76.11123301,10.62
22-02-2019 4.47,1.55E+12,-1.9985504,18.96605,-3.4042816,1.1696625,-0.13096619,0.17727661,10.60250097,76.11123301,10.62
22-02-2019 4.47,1.55E+12,-2.1876984,-4.2648926,23.152191,-1.6234589,-0.3674469,-0.038970947,10.60250097,76.11123301,10.62
22-02-2019 4.47,1.55E+12,0.12748718,13.921463,-4.14888,0.26737976,-0.2651825,0.115493774,10.60250097,76.11123301,10.62
22-02-2019 4.47,1.55E+12,0.0748291,21.719376,-6.540695,0.34194946,-0.052139282,0.11123657,10.60250097,76.11123301,10.62
22-02-2019 4.47,1.55E+12,1.1522064,-5.4500275,21.368515,-1.6841888,-0.25027466,-0.06666565,10.60250097,76.11123301,10.62
22-02-2019 4.47,1.55E+12,2.497757,20.80719,-15.068832,1.8279877,0.29833984,0.17515564,10.60250097,76.11123301,10.62
22-02-2019 4.47,1.55E+12,1.2072754,-8.885696,30.097778,-1.2484894,0.1108551,-0.077316284,10.60250097,76.11123301,10.62
22-02-2019 4.47,1.55E+12,3.9677887,11.931885,1.6474762,1.4498291,0.22697449,0.007904053,10.60250097,76.11123301,10.62
22-02-2019 4.47,1.55E+12,3.0843353,-4.322357,19.29274,-0.3568573,0.45280457,-0.1210022,10.60250097,76.11123301,10.62
22-02-2019 4.47,1.55E+12,4.3221283,9.401215,6.5819244,0.6998749,0.19821167,0.005767822,10.60250097,76.11123301,10.62
22-02-2019 4.47,1.55E+12,5.3923492,-2.574585,12.751785,-0.53263855,0.5838318,-0.15402222,10.60250097,76.11123301,10.62
22-02-2019 4.47,1.55E+12,5.69162,21.788803,-2.2095795,1.3134766,0.28981018,0.023880005,10.60250097,76.11123301,10.62
22-02-2019 4.47,1.55E+12,5.588669,-6.879364,19.271194,-1.1739197,0.5145874,-0.26054382,10.60250097,76.11123301,10.62
22-02-2019 4.47,1.55E+12,5.188843,11.783447,-2.1210022,1.1536865,0.43894958,0.003646851,10.60250097,76.11123301,10.62
22-02-2019 4.47,1.55E+12,5.5407867,-3.4221344,22.338165,-0.5230408,0.50712585,-0.14974976,10.60250097,76.11123301,10.62
22-02-2019 4.47,1.55E+12,2.82576,4.7923737,-2.8392487,1.2026825,0.41978455,-0.0592041,10.60250097,76.11123301,10.62
22-02-2019 4.47,1.55E+12,2.6198578,6.173828,14.363083,0.874588,0.37184143,0.059036255,10.60250097,76.11123301,10.62
22-02-2019 4.47,1.55E+12,1.288681,-20.013947,33.057007,-1.2676697,0.06291199,-0.114608765,10.60250097,76.11123301,10.62
22-02-2019 4.47,1.55E+12,3.7283783,37.645615,-27.25293,3.027481,0.4666443,0.25823975,10.60250097,76.11123301,10.62
22-02-2019 4.47,1.55E+12,-5.312134,-20.837555,34.019485,-4.7681274,-0.006332398,-0.3851776,10.60245832,76.11071413,10.88
22-02-2019 4.47,1.55E+12,6.7019653,41.859406,-33.054077,0.25247192,-0.2140503,0.09631348,10.60245832,76.11071413,10.88
22-02-2019 4.47,1.55E+12,-7.07666,19.04985,-7.998764,-2.4000397,0.37290955,-0.35961914,10.60245832,76.11071413,10.88
22-02-2019 4.47,1.55E+12,5.617401,0.9377136,4.532486,-4.172638,-0.62950134,-0.056015015,10.60245832,76.11071413,10.88
22-02-2019 4.47,1.55E+12,-5.7263336,35.758972,-28.201035,2.3979187,0.6392212,0.008972168,10.60245832,76.11071413,10.88
22-02-2019 4.47,1.55E+12,8.883087,-14.55278,32.96364,-3.1670227,-0.907547,-0.01020813,10.60245832,76.11071413,10.88
22-02-2019 4.47,1.55E+12,-6.6026,24.262024,-22.775772,3.217102,1.2048798,-0.14123535,10.60245832,76.11071413,10.88
22-02-2019 4.47,1.55E+12,8.914215,-20.306046,38.93956,-1.0972137,-0.6082001,-0.09542847,10.60245832,76.11071413,10.88
22-02-2019 4.47,1.55E+12,-1.091156,0.88264465,7.022461,2.1869965,0.9140625,-0.09010315,10.60245832,76.11071413,10.88
22-02-2019 4.47,1.55E+12,4.2838287,13.658096,3.3904572,2.309494,0.2599945,0.08779907,10.60245832,76.11071413,10.88
22-02-2019 4.47,1.55E+12,0.383667,-19.638062,36.1192,-2.454361,0.0320282,-0.17425537,10.60245832,76.11071413,10.88
22-02-2019 4.47,1.55E+12,-0.4806366,18.367493,-0.57673645,1.7811279,0.42190552,0.13467407,10.60245832,76.11071413,10.88
22-02-2019 4.47,1.55E+12,3.8049927,-6.891327,21.782715,-1.272995,-0.22790527,0.06010437,10.60245832,76.11071413,10.88
22-02-2019 4.47,1.55E+12,-2.0440521,24.06569,-13.261215,1.7640839,0.37823486,-0.020858765,10.60245832,76.11071413,10.88
22-02-2019 4.47,1.55E+12,1.2360077,-7.116394,21.66301,-2.4650269,-0.34295654,-0.06880188,10.60245832,76.11071413,10.88
22-02-2019 4.47,1.55E+12,-1.170166,17.756973,-4.1345215,0.20773315,0.12789917,-0.07519531,10.60245832,76.11071413,10.88
22-02-2019 4.47,1.55E+12,-1.6466064,8.359726,8.2387085,-0.94595337,-0.004196167,-0.1210022,10.60245832,76.11071413,10.88
22-02-2019 4.47,1.55E+12,0.48184204,4.900116,6.227585,-1.2346344,-0.08834839,-0.16574097,10.60245832,76.11071413,10.88
22-02-2019 4.47,1.55E+12,0.5680237,22.681854,-14.024963,1.2069397,0.17796326,-0.20515442,10.60245832,76.11071413,10.88
22-02-2019 4.47,1.55E+12,2.7299957,0.60731506,15.33992,-1.6277161,-0.11924744,-0.31700134,10.60245832,76.11071413,10.88
22-02-2019 4.47,1.55E+12,-0.08558655,17.108139,-3.6772308,0.96299744,0.31645203,-0.20515442,10.60245832,76.11071413,10.88
22-02-2019 4.47,1.55E+12,3.5919037,-0.9154053,20.181,-1.0492859,-0.07450867,-0.17318726,10.60245832,76.11071413,10.88
22-02-2019 4.47,1.55E+12,-3.439865,9.74118,8.719955,0.714798,0.37397766,-0.15614319,10.60245832,76.11071413,10.88
22-02-2019 4.47,1.55E+12,3.8552704,3.3917694,11.621719,-0.13421631,-0.13735962,0.012161255,10.60245832,76.11071413,10.88
22-02-2019 4.47,1.55E+12,-1.7687073,13.449799,6.335327,0.5752411,0.2599945,-0.07199097,10.60245832,76.11071413,10.88
22-02-2019 4.47,1.55E+12,6.098633,-1.2003174,14.46843,-0.42823792,-0.07344055,0.008972168,10.60245832,76.11071413,10.88
22-02-2019 4.47,1.55E+12,2.3900146,16.330032,-3.39711,1.113205,0.39102173,0.029205322,10.60245832,76.11071413,10.88
22-02-2019 4.47,1.55E+12,2.5169067,-15.692413,33.612473,-0.76698303,0.15666199,-0.1337738,10.60245832,76.11071413,10.88
22-02-2019 4.47,1.55E+12,7.784149,10.739563,1.5541077,2.2860565,0.16517639,0.23266602,10.60245832,76.11071413,10.88
22-02-2019 4.47,1.55E+12,-3.1932678,-8.765991,28.56549,0.9001465,0.75427246,-0.10714722,10.60245832,76.11071413,10.88
22-02-2019 4.47,1.55E+12,7.9900513,-9.5225525,34.771255,0.2705841,-0.45054626,0.20817566,10.60245832,76.11071413,10.88
22-02-2019 4.47,1.55E+12,-3.1764984,13.500076,-0.05718994,2.5523682,0.9172516,0.07501221,10.60245832,76.11071413,10.88
22-02-2019 4.47,1.55E+12,7.9110413,-2.5554352,20.671799,-0.8255768,-0.717926,0.044128418,10.60245832,76.11071413,10.88
22-02-2019 4.47,1.55E+12,-2.281067,13.782593,-10.088898,1.034378,0.6434784,-0.1018219,10.60245832,76.11071413,10.88
22-02-2019 4.47,1.55E+12,7.1448975,6.679001,5.6218567,-0.8873596,-0.52404785,0.056900024,10.60245832,76.11071413,10.88
22-02-2019 4.47,1.55E+12,-4.320938,4.00708,4.831772,-0.46125793,0.41978455,-0.20195007,10.60245832,76.11071413,10.88
22-02-2019 4.47,1.55E+12,2.6102753,1.9025726,13.649612,-0.654068,-0.40153503,0.041992188,10.60245832,76.11071413,10.88
22-02-2019 4.47,1.55E+12,-3.107071,0.63842773,13.28569,-0.41758728,0.20565796,-0.027252197,10.60245832,76.11071413,10.88
22-02-2019 4.47,1.55E+12,2.8353424,5.240082,5.93071,0.5507355,-0.274765,0.0899353,10.60245832,76.11071413,10.88
22-02-2019 4.47,1.55E+12,-0.5787964,11.077148,4.1901245,0.50920105,0.10020447,-0.029388428,10.60245832,76.11071413,10.88
22-02-2019 4.47,1.55E+12,1.3652954,1.0095367,11.48526,-0.44847107,-0.15545654,-0.002746582,10.60245832,76.11071413,10.88
22-02-2019 4.47,1.55E+12,-0.39683533,14.010056,1.3793335,0.6178589,0.091674805,0.02281189,10.60245832,76.11071413,10.88
22-02-2019 4.47,1.55E+12,-0.2460022,-3.3239746,20.233673,-1.1803131,-0.18954468,-0.05281067,10.60245832,76.11071413,10.88
22-02-2019 4.47,1.55E+12,-2.5851288,16.624512,-2.164093,0.651947,0.041610718,0.043060303,10.60245832,76.11071413,10.88
22-02-2019 4.47,1.55E+12,-1.6274567,2.5226746,14.832352,-1.0855103,-0.23216248,0.012161255,10.60245832,76.11071413,10.88
22-02-2019 4.47,1.55E+12,-0.7870941,12.654938,1.2045441,-0.14700317,-0.23641968,0.068618774,10.60245832,76.11071413,10.88
22-02-2019 4.47,1.55E+12,-1.6944885,8.0173645,8.071121,-0.5294342,-0.05000305,0.07182312,10.60245832,76.11071413,10.88
22-02-2019 4.47,1.55E+12,1.0013733,7.9263763,-0.36364746,-0.53157043,-0.24281311,0.015365601,10.60245832,76.11071413,10.88
22-02-2019 4.47,1.55E+12,-1.6729431,16.839996,-10.251709,0.255661,0.20353699,-0.017669678,10.60245832,76.11071413,10.88
22-02-2019 4.47,1.55E+12,2.181717,0.48280334,6.1198425,-1.6181335,-0.36958313,0.03666687,10.60245832,76.11071413,10.88
22-02-2019 4.47,1.55E+12,-4.237137,16.732254,6.627411,0.33448792,0.2599945,-0.16786194,10.60245832,76.11071413,10.88
22-02-2019 4.47,1.55E+12,4.2383423,-5.1770782,15.459625,-1.4849701,-0.25559998,-0.10928345,10.60245832,76.11071413,10.88
22-02-2019 4.47,1.55E+12,-1.411972,20.831131,-8.30043,1.6437073,0.5433502,-0.002746582,10.60245832,76.11071413,10.88
22-02-2019 4.47,1.55E+12,4.4921265,-21.383438,39.8757,-1.2697906,-0.40260315,-0.16041565,10.60245832,76.11071413,10.88
22-02-2019 4.47,1.55E+12,4.8368835,10.112289,-16.253967,3.9063263,0.5433502,0.1687622,10.60245832,76.11071413,10.88
22-02-2019 4.47,1.55E+12,2.2918549,-3.1132812,13.486801,2.5800781,0.24934387,0.03878784,10.60245832,76.11071413,10.88
22-02-2019 4.47,1.55E+12,1.2551575,-40.470016,56.953537,-2.6674194,0.1619873,-0.2584076,10.60245832,76.11071413,10.88
22-02-2019 4.47,1.55E+12,0.27114868,40.48752,-28.766068,5.6246033,0.7564087,0.06755066,10.60245832,76.11071413,10.88
22-02-2019 4.47,1.55E+12,1.482605,-32.930664,56.580048,-6.307434,-0.5485382,-0.1486969,10.60245832,76.11071413,10.88
22-02-2019 4.47,1.55E+12,-5.7574463,38.756516,-32.046127,1.5968323,0.24827576,-0.044296265,10.60245832,76.11071413,10.88
22-02-2019 4.47,1.55E+12,0.24241638,15.820068,-5.1855774,-1.976059,-0.7615967,0.07714844,10.60245832,76.11071413,10.88
22-02-2019 4.47,1.55E+12,-4.6082306,9.889633,-4.639694,-2.2711487,-0.64442444,0.06436157,10.60245832,76.11071413,10.88
22-02-2019 4.47,1.55E+12,-6.5882416,7.5313416,2.3513794,-0.605072,-0.29714966,0.023880005,10.60245832,76.11071413,10.88
22-02-2019 4.47,1.55E+12,1.719635,10.404388,-1.0867004,-1.0705872,-0.9671936,0.26249695,10.60245832,76.11071413,10.88
22-02-2019 4.47,1.55E+12,-8.850769,19.169556,-18.897171,0.36219788,0.42617798,-0.016601562,10.60245832,76.11071413,10.88
22-02-2019 4.47,1.55E+12,5.84964,-10.281525,28.24945,-2.3968506,-1.0577393,0.20710754,10.60245832,76.11071413,10.88
22-02-2019 4.47,1.55E+12,-3.336914,12.530426,-8.508728,1.7214661,0.67544556,0.07501221,10.60245832,76.11071413,10.88
22-02-2019 4.47,1.55E+12,2.8999786,0.6575928,1.8294373,-0.22583008,-0.28329468,0.20391846,10.60245832,76.11071413,10.88
22-02-2019 4.47,1.55E+12,-4.7973785,3.4348602,21.811447,-0.8266449,0.16944885,0.0899353,10.60245832,76.11071413,10.88
22-02-2019 4.47,1.55E+12,-0.30825806,1.1507874,26.781815,-0.525177,-0.4111328,0.07821655,10.60245832,76.11071413,10.88
22-02-2019 4.47,1.55E+12,-1.0720062,7.5504913,-4.2973175,1.2761841,0.32496643,0.152771,10.60245832,76.11071413,10.88
22-02-2019 4.47,1.55E+12,0.2855072,-13.219208,28.627731,0.22477722,-0.3131256,0.2188263,10.60245832,76.11071413,10.88
22-02-2019 4.47,1.55E+12,0.7811127,-6.6997986,8.114212,1.9760742,0.07144165,0.16023254,10.60245832,76.11071413,10.88
22-02-2019 4.47,1.55E+12,3.4338837,25.90445,-13.929199,3.8583832,0.051193237,0.29125977,10.60245832,76.11071413,10.88
22-02-2019 4.47,1.55E+12,-4.5196533,-23.588501,35.973145,-4.1832886,-0.026565552,-0.47999573,10.60245832,76.11071413,10.88
22-02-2019 4.47,1.55E+12,3.9007568,28.21724,-21.784576,0.1768341,0.14707947,0.08886719,10.60245832,76.11071413,10.88
22-02-2019 4.47,1.55E+12,1.8944092,22.882965,-20.860413,-0.8351593,0.07356262,-0.06880188,10.60245832,76.11071413,10.88
22-02-2019 4.47,1.55E+12,2.612671,-7.1618805,32.264526,-3.8626404,-0.14694214,-0.29888916,10.60245832,76.11071413,10.88
22-02-2019 4.47,1.55E+12,-4.3281097,18.25975,-12.078476,2.3073578,0.6807709,-0.036834717,10.60245832,76.11071413,10.88
22-02-2019 4.47,1.55E+12,9.005188,8.977432,-0.3660431,-0.49641418,-0.44522095,0.12188721,10.60245832,76.11071413,10.88
22-02-2019 4.47,1.55E+12,-9.523529,-4.961609,4.4941864,-1.1313171,0.79689026,-0.44696045,10.60245832,76.11071413,10.88
22-02-2019 4.47,1.55E+12,10.819992,9.10672,2.9762573,-0.8596649,-0.62098694,-0.046432495,10.60245832,76.11071413,10.88
22-02-2019 4.47,1.55E+12,6.304535,33.115784,-41.64447,2.5832672,0.5795746,0.045181274,10.60245832,76.11071413,10.88
22-02-2019 4.47,1.55E+12,-4.54599,-17.679611,56.309494,-2.024002,0.39421082,-0.1529541,10.60245832,76.11071413,10.88
22-02-2019 4.47,1.55E+12,-1.4861908,-26.717712,44.668884,0.042617798,0.03842163,-0.056015015,10.60245832,76.11071413,10.88
22-02-2019 4.47,1.55E+12,6.4050903,50.41388,-45.5159,4.1044617,0.22590637,0.12828064,10.60245832,76.11071413,10.88
22-02-2019 4.47,1.55E+12,1.1809387,1.287262,11.276962,-4.8490753,-0.29182434,-0.2637329,10.60245832,76.11071413,10.88
22-02-2019 4.47,1.55E+12,1.5688019,1.524292,-10.546188,-4.6893005,0.50286865,-0.1998291,10.60245832,76.11071413,10.88
22-02-2019 4.47,1.55E+12,11.938095,65.68172,-69.34061,4.859741,-0.24601746,0.47662354,10.60245832,76.11071413,10.88
22-02-2019 4.47,1.55E+12,-1.5604248,-50.62143,59.39563,-6.449112,0.14173889,-0.44483948,10.60245832,76.11071413,10.88
