TIME,Mills,Ax,Ay,Az,Gx,Gy,Gz,Lat,Lon,Speed
19-02-2019 11.27,1.55056E+12,0.31184387,5.5896454,7.9346466,-0.005233765,-0.025909424,-0.00970459,10.62099394,76.14430236,0
19-02-2019 11.27,1.55056E+12,0.23762512,5.3526154,8.485321,0.006484985,-3.36E-04,-0.010772705,10.62099394,76.14430236,0
19-02-2019 11.27,1.55056E+12,0.25439453,5.3214874,8.703186,-0.007369995,-0.002471924,0.006271362,10.62099394,76.14430236,0
19-02-2019 11.27,1.55056E+12,0.034118652,5.2544556,8.221954,0.008621216,-0.003540039,-0.005447388,10.62099394,76.14430236,0
19-02-2019 11.27,1.55056E+12,0.23522949,5.2233276,8.854019,-0.0158844,-0.01524353,-0.004379273,10.62099394,76.14430236,0
19-02-2019 11.27,1.55056E+12,0.06524658,5.240082,8.293777,0.01927185,-0.014190674,-0.002243042,10.62099394,76.14430236,0
19-02-2019 11.27,1.55056E+12,0.24481201,5.283188,8.576294,-9.77E-04,-0.020584106,0.00201416,10.62099394,76.14430236,0
19-02-2019 11.27,1.55056E+12,0.31663513,5.2113647,8.70079,0.011810303,-0.016311646,-0.002243042,10.62099394,76.14430236,0
19-02-2019 11.27,1.55056E+12,0.031723022,5.347824,8.181259,0.01927185,-0.010986328,-0.001174927,10.62099394,76.14430236,0
19-02-2019 11.27,1.55056E+12,0.42677307,5.276001,8.71756,-0.00630188,-0.033355713,0.012664795,10.62099394,76.14430236,0
19-02-2019 11.27,1.55056E+12,0.24960327,5.323883,8.2052,0.01927185,-0.008865356,0.008407593,10.62099394,76.14430236,0
19-02-2019 11.27,1.55056E+12,0.7236481,5.498657,8.964157,-0.0158844,-0.005661011,0.02545166,10.62099394,76.14430236,0
19-02-2019 11.27,1.55056E+12,0.7835083,5.876938,7.7287445,0.04270935,-0.028030396,0.003082275,10.62099394,76.14430236,0
19-02-2019 11.27,1.55056E+12,0.48423767,4.639145,9.624954,-0.016952515,0.022033691,0.02545166,10.62099394,76.14430236,0
19-02-2019 11.27,1.55056E+12,0.15861511,5.544159,8.308151,0.06826782,-0.006729126,0.00201416,10.62099394,76.14430236,0
19-02-2019 11.27,1.55056E+12,0.3932495,4.964752,9.189209,0.009674072,-0.025909424,-0.012893677,10.62099394,76.14430236,0
19-02-2019 11.27,1.55056E+12,0.20172119,5.592041,7.7167816,0.065078735,-0.009918213,-0.045928955,10.62099394,76.14430236,0
19-02-2019 11.27,1.55056E+12,0.52493286,5.419647,8.842056,-0.035064697,-0.032287598,-0.059768677,10.62099394,76.14430236,0
19-02-2019 11.27,1.55056E+12,0.30467224,5.5225983,7.98732,0.022460938,-0.031234741,-0.1439209,10.62099394,76.14430236,0
19-02-2019 11.27,1.55056E+12,0.7116852,5.4292297,8.423065,-0.028671265,-0.051467896,-0.18440247,10.62099394,76.14430236,0
19-02-2019 11.27,1.55056E+12,0.53689575,5.5633087,8.2339325,0.008621216,-0.063186646,-0.2621765,10.62099394,76.14430236,0
19-02-2019 11.27,1.55056E+12,0.1083374,5.1443176,8.727127,-0.002044678,-0.047210693,-0.25257874,10.62099394,76.14430236,0
19-02-2019 11.27,1.55056E+12,0.14665222,5.4962616,8.34166,0.023529053,-0.06211853,-0.26750183,10.62099394,76.14430236,0
19-02-2019 11.27,1.55056E+12,0.28790283,5.414871,8.545166,-9.77E-04,-0.06425476,-0.28240967,10.62099394,76.14430236,0
19-02-2019 11.27,1.55056E+12,0.058059692,5.505844,7.9250793,0.013946533,-0.056793213,-0.28987122,10.62099394,76.14430236,0
19-02-2019 11.27,1.55056E+12,0.24720764,5.4316254,8.219559,-0.03186035,-0.07064819,-0.30158997,10.62099394,76.14430236,0
19-02-2019 11.27,1.55056E+12,0.19213867,5.3047333,8.411102,-0.00630188,-0.06744385,-0.33674622,10.62099394,76.14430236,0
19-02-2019 11.27,1.55056E+12,0.12988281,5.6063995,7.7119904,-0.002044678,-0.072769165,-0.34739685,10.62099394,76.14430236,0
19-02-2019 11.27,1.55056E+12,0.055664062,5.0724945,8.741501,-0.044647217,-0.063186646,-0.3399353,10.62099394,76.14430236,0
19-02-2019 11.27,1.55056E+12,-0.16938782,5.276001,8.571503,0.023529053,-0.053604126,-0.3111725,10.62099394,76.14430236,0
19-02-2019 11.27,1.55056E+12,-0.047286987,5.6207733,8.356033,0.01499939,-0.041885376,-0.27282715,10.62099394,76.14430236,0
19-02-2019 11.27,1.55056E+12,-0.22445679,4.99588,9.148514,0.033111572,-0.03656006,-0.2568512,10.62099394,76.14430236,0
19-02-2019 11.27,1.55056E+12,-0.26994324,5.41008,8.444611,0.049087524,-0.032287598,-0.22062683,10.62099394,76.14430236,0
19-02-2019 11.27,1.55056E+12,-0.3728943,5.474716,8.030426,0.00328064,-0.032287598,-0.20144653,10.62099394,76.14430236,0
19-02-2019 11.27,1.55056E+12,-0.28909302,5.129959,8.865997,-0.035064697,-0.022705078,-0.15563965,10.62099394,76.14430236,0
19-02-2019 11.27,1.55056E+12,-0.56204224,6.3174744,7.2929993,0.035247803,-0.01737976,-0.13114929,10.62099394,76.14430236,0
19-02-2019 11.27,1.55056E+12,-0.581192,5.6063995,8.008865,-0.046783447,-0.005661011,-0.076812744,10.62099394,76.14430236,0
19-02-2019 11.27,1.55056E+12,-0.38008118,6.652664,7.4797516,0.016067505,-0.012054443,-0.05657959,10.62099394,76.14430236,0
19-02-2019 11.27,1.55056E+12,-0.3728943,5.9487762,8.042389,-0.02760315,-0.007797241,-0.060836792,10.62099394,76.14430236,0
19-02-2019 11.27,1.55056E+12,-0.22685242,6.868149,8.123795,-0.005233765,-0.022705078,-0.06616211,10.62099394,76.14430236,0
19-02-2019 11.27,1.55056E+12,-0.3537445,6.224106,7.4438477,0.027786255,-0.019515991,-0.12049866,10.62099394,76.14430236,0
19-02-2019 11.27,1.55056E+12,-0.23641968,6.9974365,6.6681213,0.02671814,-0.057861328,-0.17695618,10.62099394,76.14430236,0
19-02-2019 11.27,1.55056E+12,-0.32261658,6.24086,7.053589,-9.77E-04,-0.051467896,-0.25578308,10.62099394,76.14430236,0
19-02-2019 11.27,1.55056E+12,-0.32980347,6.769989,6.361664,0.043762207,-0.084487915,-0.31010437,10.62099394,76.14430236,0
19-02-2019 11.27,1.55056E+12,-0.47824097,5.8051147,7.6569214,-0.032928467,-0.09194946,-0.40385437,10.62099394,76.14430236,0
19-02-2019 11.27,1.55056E+12,-0.3944397,6.513809,6.598694,0.03843689,-0.11857605,-0.4187622,10.62099394,76.14430236,0
19-02-2019 11.27,1.55056E+12,-0.61231995,5.7093506,8.724731,-0.0627594,-0.11112976,-0.44433594,10.62099394,76.14430236,0
19-02-2019 11.27,1.55056E+12,-0.9929962,6.9136353,6.6657257,0.084243774,-0.11325073,-0.4421997,10.62099394,76.14430236,0
19-02-2019 11.27,1.55056E+12,-0.6434326,6.37973,8.226746,-0.020141602,-0.14201355,-0.4091797,10.62099394,76.14430236,0
19-02-2019 11.27,1.55056E+12,-0.87327576,6.3725433,7.3600464,0.09916687,-0.11752319,-0.3857422,10.62099394,76.14430236,0
19-02-2019 11.27,1.55056E+12,-0.854126,6.968704,7.721573,0.072525024,-0.13775635,-0.3164978,10.62099394,76.14430236,0
19-02-2019 11.27,1.55056E+12,-0.57640076,6.054123,7.8867645,0.11193848,-0.12922668,-0.28240967,10.62099394,76.14430236,0
19-02-2019 11.27,1.55056E+12,-0.93792725,7.107559,6.2371674,0.13111877,-0.12071228,-0.21104431,10.62099394,76.14430236,0
19-02-2019 11.27,1.55056E+12,-0.8756714,6.9112396,8.782196,0.011810303,-0.11752319,-0.14924622,10.62099394,76.14430236,0
19-02-2019 11.27,1.55056E+12,-0.68414307,7.1746063,6.136612,0.1407013,-0.11538696,-0.040603638,10.62099394,76.14430236,0
19-02-2019 11.27,1.55056E+12,-1.2707214,6.8466034,6.371231,-0.021209717,-0.08555603,0.05847168,10.62099394,76.14430236,0
19-02-2019 11.27,1.55056E+12,-1.20607,6.0062256,9.318497,-0.058502197,-0.05999756,0.22465515,10.62099394,76.14430236,0
19-02-2019 11.27,1.55056E+12,-1.2108612,8.141861,4.9730225,0.072525024,-0.056793213,0.2821808,10.62099394,76.14430236,0
19-02-2019 11.27,1.55056E+12,-0.46148682,6.87294,5.6960754,-0.057434082,-0.04827881,0.41853333,10.62099394,76.14430236,0
19-02-2019 11.27,1.55056E+12,-1.3377533,6.31987,9.447784,0.00541687,0.004989624,0.49417114,10.62099394,76.14430236,0
19-02-2019 11.27,1.55056E+12,-0.6218872,6.9303894,8.794174,0.029922485,-0.018447876,0.53570557,10.62099394,76.14430236,0
19-02-2019 11.27,1.55056E+12,-0.11911011,6.087631,7.276245,0.09170532,0.027359009,0.62306213,10.62099394,76.14430236,0
19-02-2019 11.27,1.55056E+12,-0.9618683,6.0253906,11.516373,-0.1096344,0.10832214,0.73172,10.62099394,76.14430236,0
19-02-2019 11.27,1.55056E+12,-0.23402405,7.5193634,3.7232513,0.11088562,0.05718994,0.7082825,10.62099394,76.14430236,0
19-02-2019 11.27,1.55056E+12,0.383667,6.999832,6.8428955,-0.15863037,0.16584778,0.938385,10.62099394,76.14430236,0
19-02-2019 11.27,1.55056E+12,-0.6889343,6.501831,9.823669,-0.073410034,0.14134216,0.7871094,10.62099394,76.14430236,0
19-02-2019 11.27,1.55056E+12,-0.8421631,4.6271667,11.080627,-0.085128784,0.2223053,0.94477844,10.62099394,76.14430236,0
19-02-2019 11.27,1.55056E+12,0.5752106,10.062012,0.04096985,0.22486877,0.09234619,1.0225372,10.62099394,76.14430236,0
19-02-2019 11.27,1.55056E+12,-0.1598053,7.0213776,4.9227448,-0.21936035,0.25958252,0.7881775,10.62099394,76.14430236,0
19-02-2019 11.27,1.55056E+12,1.6789398,6.5305634,9.981689,-0.1096344,0.25213623,0.6901703,10.62099394,76.14430236,0
19-02-2019 11.27,1.55056E+12,0.972641,9.549652,5.18132,0.28344727,0.23721313,0.333313,10.62099394,76.14430236,0
19-02-2019 11.27,1.55056E+12,2.3684692,4.394928,11.518768,-0.07661438,0.1519928,0.21400452,10.62099394,76.14430236,0
19-02-2019 11.27,1.55056E+12,2.897583,9.877655,3.8932343,0.50183105,0.14454651,-0.1822815,10.62099394,76.14430236,0
19-02-2019 11.27,1.55056E+12,0.86491394,5.3095245,12.17717,-0.13093567,0.20739746,-0.2419281,10.62099394,76.14430236,0
19-02-2019 11.27,1.55056E+12,2.351715,9.236008,4.1183014,0.33885193,0.08488464,-0.35379028,10.62099394,76.14430236,0
19-02-2019 11.27,1.55056E+12,1.7579498,6.604782,9.897903,-0.17887878,0.12322998,-0.4688263,10.62099394,76.14430236,0
19-02-2019 11.27,1.55056E+12,0.46028137,7.833008,3.129486,0.19610596,0.13388062,-0.7117157,10.62099394,76.14430236,0
19-02-2019 11.27,1.55056E+12,-0.018554688,9.6262665,7.1708984,-0.51123047,0.06037903,-0.82569885,10.62099394,76.14430236,0
19-02-2019 11.27,1.55056E+12,-0.62667847,10.607895,4.642624,0.039505005,0.004989624,-0.9609833,10.62099394,76.14430236,0
19-02-2019 11.27,1.55056E+12,-0.58358765,9.473038,-2.4394226,-0.3376007,-0.17930603,-0.8661804,10.62099394,76.14430236,0
19-02-2019 11.27,1.55056E+12,2.739563,6.7173157,6.0240784,-0.3961792,-0.18782043,-1.0249023,10.62099394,76.14430236,0
19-02-2019 11.27,1.55056E+12,1.5041656,7.4140167,0.10560608,-0.15437317,-0.09301758,-1.0600586,10.62099394,76.14430236,0
19-02-2019 11.27,1.55056E+12,-0.344162,2.774063,7.9849243,-0.567688,-0.19314575,-1.1569977,10.62099394,76.14430236,0
19-02-2019 11.27,1.55056E+12,0.809845,5.347824,8.806137,0.009674072,-0.18888855,-0.9940033,10.62099394,76.14430236,0
19-02-2019 11.27,1.55056E+12,1.2719269,4.955185,14.904175,-0.2587738,-0.1963501,-0.9801636,10.62099394,76.14430236,0
19-02-2019 11.27,1.55056E+12,-3.2387543,3.5138702,12.981628,0.32818604,-0.1771698,-1.0185089,10.62099394,76.14430236,0
19-02-2019 11.27,1.55056E+12,0.56562805,5.927231,13.594543,0.20568848,-0.39874268,-0.9641876,10.62099394,76.14430236,0
19-02-2019 11.27,1.55056E+12,2.3588867,6.485077,9.419052,0.517807,-0.3071289,-0.87789917,10.62099394,76.14430236,0
19-02-2019 11.27,1.55056E+12,-2.644989,4.359024,7.702408,0.13111877,-0.30073547,-0.85765076,10.62099394,76.14430236,0
19-02-2019 11.27,1.55056E+12,-0.48780823,7.265579,10.778961,0.56681824,-0.41471863,-0.6904144,10.62099394,76.14430236,0
19-02-2019 11.27,1.55056E+12,-0.9906006,4.1315765,9.012039,0.07572937,-0.3955536,-0.47628784,10.62099394,76.14430236,0
19-02-2019 11.27,1.55056E+12,-1.656189,4.813919,11.427795,0.44750977,-0.4232483,-0.34526062,10.62099394,76.14430236,0
19-02-2019 11.27,1.55056E+12,0.457901,5.3837433,8.219559,0.1875763,-0.43496704,0.05633545,10.62099394,76.14430236,0
19-02-2019 11.27,1.55056E+12,0.87927246,3.1595306,11.197952,0.4336548,-0.28475952,0.13943481,10.62099394,76.14430236,0
19-02-2019 11.27,1.55056E+12,-2.1230621,1.8858185,15.1723175,-0.13839722,-0.11752319,0.49949646,10.62099394,76.14430236,0
19-02-2019 11.27,1.55056E+12,-1.4526825,4.1674805,8.952194,1.042984,-0.24108887,0.49417114,10.62099394,76.14430236,0
19-02-2019 11.27,1.55056E+12,0.63746643,5.450775,10.060699,0.28451538,-0.19207764,0.6070862,10.62099394,76.14430236,0
19-02-2019 11.27,1.55056E+12,-2.9777832,5.967926,10.434204,0.15348816,-0.19207764,0.6081543,10.62099394,76.14430236,0
19-02-2019 11.27,1.55056E+12,-0.09996033,5.9487762,3.3234253,0.2909088,-0.2325592,0.54530334,10.62099394,76.14430236,0
19-02-2019 11.27,1.55056E+12,-1.6107025,8.060455,5.5260773,-0.054229736,-0.15905762,0.4409027,10.62099394,76.14430236,0
19-02-2019 11.27,1.55056E+12,2.2272034,5.9894714,8.904297,-0.07661438,-0.2549286,0.29815674,10.62099394,76.14430236,0
19-02-2019 11.27,1.55056E+12,-0.5285187,7.042923,4.520523,0.22486877,-0.12496948,0.24809265,10.62099394,76.14430236,0
19-02-2019 11.27,1.55056E+12,0.53689575,7.4954224,11.497223,-0.0861969,-0.16226196,0.29496765,10.62099394,76.14430236,0
19-02-2019 11.27,1.55056E+12,0.48423767,7.0525055,9.162872,0.18118286,-0.086624146,0.20228577,10.62099394,76.14430236,0
19-02-2019 11.27,1.55056E+12,0.15861511,6.0612946,6.687271,0.044830322,-0.1260376,0.25660706,10.62099394,76.14430236,0
19-02-2019 11.27,1.55056E+12,-0.19332886,6.695755,3.8333893,-0.0670166,-0.08023071,0.319458,10.62099394,76.14430236,0
19-02-2019 11.27,1.55056E+12,1.5496521,5.283188,12.258575,-0.39831543,-0.1302948,0.24595642,10.62099394,76.14430236,0
19-02-2019 11.27,1.55056E+12,0.99180603,5.663864,6.8069763,0.043762207,0.015640259,0.23851013,10.62099394,76.14430236,0
19-02-2019 11.27,1.55056E+12,0.19213867,5.386139,6.725586,-0.10536194,-0.007797241,0.23744202,10.62099394,76.14430236,0
19-02-2019 11.27,1.55056E+12,0.16101074,5.259247,10.520386,0.04057312,-0.058929443,0.17459106,10.62099394,76.14430236,0
19-02-2019 11.27,1.55056E+12,2.0979156,6.166641,8.669678,0.048034668,-0.1260376,-0.004379273,10.62099394,76.14430236,0
19-02-2019 11.27,1.55056E+12,1.5640106,4.327896,8.255478,-0.049972534,-0.032287598,-0.065093994,10.62099394,76.14430236,0
19-02-2019 11.27,1.55056E+12,0.45550537,4.1555176,6.8835907,-0.09259033,-0.11752319,-0.1865387,10.62099394,76.14430236,0
19-02-2019 11.27,1.55056E+12,0.0796051,6.367752,8.406311,0.09277344,-0.16651917,-0.22702026,10.62099394,76.14430236,0
19-02-2019 11.27,1.55056E+12,1.1953125,5.022217,11.549896,-0.2907257,-0.22190857,-0.20144653,10.62099394,76.14430236,0
19-02-2019 11.27,1.55056E+12,2.284668,4.275223,7.276245,-0.013763428,-0.14201355,-0.114105225,10.62099394,76.14430236,0
19-02-2019 11.27,1.55056E+12,0.25439453,5.204178,21.631882,-0.42707825,-0.086624146,-0.026748657,10.62099394,76.14430236,0
19-02-2019 11.27,1.55056E+12,-0.33937073,3.2074127,16.355057,0.11193848,-0.08023071,0.06486511,10.62099394,76.14430236,0
19-02-2019 11.27,1.55056E+12,-0.21487427,4.3733826,15.402161,0.15135193,-0.088760376,0.25448608,10.62099394,76.14430236,0
19-02-2019 11.27,1.55056E+12,-0.23881531,7.6271057,0.7472534,0.31221008,-0.17503357,0.25660706,10.62099394,76.14430236,0
19-02-2019 11.27,1.55056E+12,-0.042495728,5.362198,-1.7427063,0.022460938,-0.11218262,0.17138672,10.62099394,76.14430236,0
19-02-2019 11.27,1.55056E+12,0.6063385,6.0565033,7.6018524,-0.25663757,-0.06211853,0.22465515,10.62099394,76.14430236,0
19-02-2019 11.27,1.55056E+12,-0.3944397,5.481903,2.0520935,0.011810303,-0.09301758,0.16073608,10.62099394,76.14430236,0
19-02-2019 11.27,1.55056E+12,0.56085205,3.7556763,15.462021,-0.36636353,-0.15054321,0.204422,10.62099394,76.14430236,0
19-02-2019 11.27,1.55056E+12,0.07243347,4.6175995,6.3808136,0.1843872,-0.1026001,0.17565918,10.62099394,76.14430236,0
19-02-2019 11.27,1.55056E+12,0.6973114,4.8163147,12.486023,-0.10217285,-0.12922668,0.25128174,10.62099394,76.14430236,0
19-02-2019 11.27,1.55056E+12,0.5057831,9.772308,-0.63897705,0.5071564,-0.016311646,0.27578735,10.62099394,76.14430236,0
19-02-2019 11.27,1.55056E+12,0.6901245,-0.4700775,26.19522,-0.42282104,-0.004592896,0.27046204,10.62099394,76.14430236,0
19-02-2019 11.27,1.55056E+12,2.5240936,9.168976,2.2939148,1.2240753,-0.21018982,0.31626892,10.62099394,76.14430236,0
19-02-2019 11.27,1.55056E+12,1.1234894,5.125168,22.797852,0.11833191,0.15625,0.3897705,10.62099394,76.14430236,0
19-02-2019 11.27,1.55056E+12,-0.7583618,2.8386993,17.092468,0.37187195,-0.08769226,0.29922485,10.62099394,76.14430236,0
19-02-2019 11.27,1.55056E+12,2.0835571,8.879272,3.6969147,0.79797363,-0.025909424,0.4366455,10.62099394,76.14430236,0
19-02-2019 11.27,1.55056E+12,-0.42077637,3.9903107,6.4430695,0.07785034,0.015640259,0.17671204,10.62099394,76.14430236,0
19-02-2019 11.27,1.55056E+12,1.6573944,6.916031,5.401581,0.58491516,-0.013122559,0.2832489,10.62099394,76.14430236,0
19-02-2019 11.27,1.55056E+12,0.8457489,5.0246124,7.96817,0.023529053,0.06037903,0.5112152,10.62099394,76.14430236,0
19-02-2019 11.27,1.55056E+12,1.5400696,5.66626,-2.1784515,0.10021973,0.04333496,0.3929596,10.62099394,76.14430236,0
19-02-2019 11.27,1.55056E+12,0.4339447,3.6263885,0.07688904,-0.38659668,0.13494873,0.35887146,10.62099394,76.14430236,0
19-02-2019 11.27,1.55056E+12,1.5352783,5.9152527,8.415894,-0.37275696,0.102996826,0.32373047,10.62099394,76.14430236,0
19-02-2019 11.27,1.55056E+12,2.5647888,2.402954,8.73671,-0.24810791,0.07849121,0.38763428,10.62099394,76.14430236,0
19-02-2019 11.27,1.55056E+12,-0.5740051,8.599152,9.129364,0.23658752,0.1477356,0.2832489,10.62099394,76.14430236,0
19-02-2019 11.27,1.55056E+12,1.9590607,5.5513306,12.33519,-0.22361755,0.032684326,0.31733704,10.62099394,76.14430236,0
19-02-2019 11.27,1.55056E+12,1.9997559,8.445923,12.995987,0.004348755,0.112579346,0.24702454,10.62099394,76.14430236,0
19-02-2019 11.27,1.55056E+12,-0.34655762,8.730835,5.7750854,0.16734314,0.10939026,0.06486511,10.62099394,76.14430236,0
19-02-2019 11.27,1.55056E+12,3.5248718,8.292694,0.67063904,-0.694458,0.058258057,0.22679138,10.62099394,76.14430236,0
19-02-2019 11.27,1.55056E+12,1.0420837,5.5417633,-0.3875885,-0.42388916,0.16903687,0.17671204,10.62099394,76.14430236,0
19-02-2019 11.27,1.55056E+12,0.27114868,6.3246613,11.418213,-0.8009796,0.13388062,0.16712952,10.62099394,76.14430236,0
19-02-2019 11.27,1.55056E+12,-0.49020386,4.153122,11.454132,-0.36636353,0.21591187,0.3705902,10.62099394,76.14430236,0
19-02-2019 11.27,1.55056E+12,0.43156433,2.7596893,-3.00206,-0.035064697,-0.07171631,0.29389954,10.62099394,76.14430236,0
19-02-2019 11.27,1.55056E+12,1.1713715,-0.063064575,9.294556,-0.53041077,0.19354248,0.31733704,10.62099394,76.14430236,0
19-02-2019 11.27,1.55056E+12,2.4786072,11.845688,-1.9222717,0.12472534,0.12750244,0.26620483,10.62099394,76.14430236,0
19-02-2019 11.27,1.55056E+12,-0.42556763,2.300003,16.244919,-0.9266815,0.25852966,0.22146606,10.62099394,76.14430236,0
19-02-2019 11.27,1.55056E+12,8.432983,4.7085724,2.6482544,-0.29286194,-0.15586853,0.286438,10.62099394,76.14430236,0
19-02-2019 11.27,1.55056E+12,9.886261,7.1793976,-6.2964783,0.24829102,-0.037628174,0.9788666,10.62099394,76.14430236,0
19-02-2019 11.27,1.55056E+12,-4.0025024,7.107559,4.728821,-0.75624084,0.6313629,-0.44433594,10.62099394,76.14430236,0
19-02-2019 11.27,1.55056E+12,-7.186798,7.5792236,-1.6684875,0.044830322,0.19354248,-0.53700256,10.62099394,76.14430236,0
19-02-2019 11.27,1.55056E+12,2.3038177,3.7509003,10.915436,-0.6326752,-0.37957764,0.38230896,10.62099394,76.14430236,0
19-02-2019 11.27,1.55056E+12,0.9750366,3.1140442,7.616226,0.12579346,0.19033813,0.2555542,10.62099394,76.14430236,0
19-02-2019 11.27,1.55056E+12,1.5664062,13.83049,-1.8025665,0.16627502,0.12110901,0.25767517,10.62099394,76.14430236,0
19-02-2019 11.27,1.55056E+12,2.866455,9.652603,0.1151886,-0.3333435,0.22444153,0.5058899,10.62099394,76.14430236,0
19-02-2019 11.27,1.55056E+12,2.2511444,-4.135605,27.248672,-1.4965973,0.43641663,0.6603546,10.62099394,76.14430236,0
19-02-2019 11.27,1.55056E+12,0.35255432,1.5913239,13.958466,0.9929199,0.25532532,0.5048218,10.62099394,76.14430236,0
19-02-2019 11.27,1.55056E+12,0.9750366,18.460876,-7.5893555,0.84591675,0.15519714,0.29389954,10.62099394,76.14430236,0
19-02-2019 11.27,1.55056E+12,0.4507141,8.17778,16.580109,-0.7455902,0.43322754,0.5410309,10.62099394,76.14430236,0
19-02-2019 11.27,1.55056E+12,1.046875,8.101166,-1.2111969,-0.024414062,0.08807373,0.49736023,10.62099394,76.14430236,0
19-02-2019 11.27,1.55056E+12,7.2358856,-8.174622,21.878479,-0.78393555,0.08062744,0.006271362,10.62099394,76.14430236,0
19-02-2019 11.27,1.55056E+12,4.26947,24.257233,-16.962646,1.2304688,0.66970825,-0.37721252,10.62099394,76.14430236,0
19-02-2019 11.27,1.55056E+12,-0.2579651,19.945282,-19.699219,0.3409729,0.30752563,-0.22595215,10.62099394,76.14430236,0
19-02-2019 11.27,1.55056E+12,3.9342804,0.54026794,19.228104,-2.3711853,0.07209778,-0.05444336,10.62099394,76.14430236,0
19-02-2019 11.27,1.55056E+12,1.8513184,15.537552,-17.338547,2.0017242,0.22123718,-0.07788086,10.62099394,76.14430236,0
19-02-2019 11.27,1.55056E+12,-0.42556763,6.08284,16.323929,-1.1503906,-0.01737976,-0.25790405,10.62099394,76.14430236,0
19-02-2019 11.27,1.55056E+12,-1.4861908,7.1267242,1.5493164,0.5817261,0.067840576,-0.3665619,10.62099394,76.14430236,0
19-02-2019 11.27,1.55056E+12,5.557541,8.951096,8.463776,-0.17355347,-0.012054443,-0.21316528,10.62099394,76.14430236,0
19-02-2019 11.27,1.55056E+12,-2.2188263,-1.4900208,22.486603,-0.86383057,0.4310913,0.028640747,10.62099394,76.14430236,0
19-02-2019 11.27,1.55056E+12,0.8816681,14.706757,-7.785675,0.54763794,0.05079651,-0.01184082,10.62099394,76.14430236,0
19-02-2019 11.27,1.55056E+12,0.8744812,5.524994,16.292816,-1.4742279,0.13388062,-0.1354065,10.62099394,76.14430236,0
19-02-2019 11.27,1.55056E+12,0.78590393,9.760345,-2.322113,-0.08938599,0.16796875,-0.02355957,10.62099394,76.14430236,0
19-02-2019 11.27,1.55056E+12,1.9925842,6.81308,11.911423,-0.9139099,0.09020996,-0.02142334,10.62099394,76.14430236,0
19-02-2019 11.27,1.55056E+12,0.21607971,2.7118073,12.780518,-0.24598694,0.1754303,-0.078948975,10.62099394,76.14430236,0
19-02-2019 11.27,1.55056E+12,1.5209198,1.5697784,8.751068,-0.19165039,0.100860596,0.10748291,10.62099394,76.14430236,0
19-02-2019 11.27,1.55056E+12,-0.040100098,4.141144,7.776642,0.08744812,0.09020996,9.46E-04,10.62099394,76.14430236,0
19-02-2019 11.27,1.55056E+12,2.1194763,4.232132,2.7033234,0.09489441,0.06890869,0.01159668,10.62099394,76.14430236,0
19-02-2019 11.27,1.55056E+12,0.26156616,5.2185364,10.592209,0.2578888,0.22763062,0.07977295,10.62099394,76.14430236,0
19-02-2019 11.27,1.55056E+12,-0.36331177,-2.3471375,19.55371,-0.72535706,0.13815308,-0.039535522,10.62099394,76.14430236,0
19-02-2019 11.27,1.55056E+12,1.6909027,7.7947083,4.7359924,0.9396515,0.061447144,-0.1907959,10.62099394,76.14430236,0
19-02-2019 11.27,1.55056E+12,-0.68174744,4.323105,12.624893,-0.33972168,0.18075562,-0.28240967,10.62099394,76.14430236,0
19-02-2019 11.27,1.55056E+12,0.2519989,4.485916,6.5939026,0.32713318,-0.041885376,-0.35272217,10.62099394,76.14430236,0
19-02-2019 11.27,1.55056E+12,-0.17178345,4.699005,9.936203,-0.058502197,0.13494873,-0.06829834,10.62099394,76.14430236,0
19-02-2019 11.27,1.55056E+12,1.9782104,6.145096,9.955353,0.007553101,-0.014190674,0.05101013,10.62099394,76.14430236,0
19-02-2019 11.27,1.55056E+12,-1.5173187,4.354233,8.62178,-0.10536194,0.16584778,-0.13008118,10.62099394,76.14430236,0
19-02-2019 11.27,1.55056E+12,0.7835083,6.4491577,9.610596,-0.07022095,-0.013122559,-0.10450745,10.62099394,76.14430236,0
19-02-2019 11.27,1.55056E+12,0.90800476,6.08284,9.493271,-0.042526245,0.07635498,-0.001174927,10.62099394,76.14430236,0
19-02-2019 11.27,1.55056E+12,-0.008972168,4.517044,11.525955,0.002227783,0.047607422,-0.067230225,10.62099394,76.14430236,0
19-02-2019 11.27,1.55056E+12,0.53211975,6.2624054,8.813324,0.14497375,7.32E-04,-0.16096497,10.62099394,76.14430236,0
19-02-2019 11.27,1.55056E+12,1.532898,4.110031,7.3289185,0.09703064,0.05718994,-0.114105225,10.62099394,76.14430236,0
19-02-2019 11.27,1.55056E+12,1.1091156,5.316696,10.115768,-0.08299255,0.028427124,-0.17375183,10.62099394,76.14430236,0
19-02-2019 11.27,1.55056E+12,1.18573,3.5785065,11.468491,-0.0158844,0.016708374,-0.23553467,10.62099394,76.14430236,0
19-02-2019 11.27,1.55056E+12,1.4012146,5.6686554,6.390396,0.13537598,-0.006729126,-0.06829834,10.62099394,76.14430236,0
19-02-2019 11.27,1.55056E+12,0.8912506,5.264023,12.962479,-0.16183472,0.05718994,-0.03526306,10.62099394,76.14430236,0
19-02-2019 11.27,1.55056E+12,1.0037689,7.220093,10.49884,0.14497375,0.015640259,-0.015029907,10.62099394,76.14430236,0
19-02-2019 11.27,1.55056E+12,1.1234894,7.751602,7.7000275,0.062942505,0.056121826,-0.065093994,10.62099394,76.14430236,0
19-02-2019 11.27,1.55056E+12,0.019760132,6.643097,4.278702,0.18971252,0.05505371,0.00201416,10.62099394,76.14430236,0
19-02-2019 11.27,1.55056E+12,0.675766,3.8107452,6.9626007,0.076797485,-0.005661011,0.012664795,10.62099394,76.14430236,0
19-02-2019 11.27,1.55056E+12,0.5632324,4.3685913,9.517212,0.03843689,0.04121399,-0.026748657,10.62099394,76.14430236,0
19-02-2019 11.27,1.55056E+12,0.44592285,3.0422058,9.098236,0.11407471,0.018844604,-0.059768677,10.62099394,76.14430236,0
19-02-2019 11.27,1.55056E+12,1.4634552,5.0294037,6.7710724,0.20675659,0.026290894,-0.037399292,10.62099394,76.14430236,0
19-02-2019 11.27,1.55056E+12,-0.040100098,6.295929,12.165207,0.18650818,0.07423401,-0.013961792,10.62099394,76.14430236,0
19-02-2019 11.27,1.55056E+12,1.3078308,6.0924225,9.172455,0.14283752,0.028427124,-0.08534241,10.62099394,76.14430236,0
19-02-2019 11.27,1.55056E+12,0.55366516,7.402054,5.9498596,-0.005233765,0.038009644,-0.088531494,10.62099394,76.14430236,0
19-02-2019 11.27,1.55056E+12,0.7044983,6.4276123,5.988159,0.008621216,0.007125855,-0.123687744,10.62099394,76.14430236,0
19-02-2019 11.27,1.55056E+12,-0.61231995,6.461136,7.6641083,0.059753418,0.02949524,-0.14605713,10.62099394,76.14430236,0
19-02-2019 11.27,1.55056E+12,0.6853485,5.3454285,9.701569,-0.14691162,-0.006729126,-0.13754272,10.62099394,76.14430236,0
19-02-2019 11.27,1.55056E+12,0.8601227,6.5856323,7.824524,-0.10430908,-0.033355713,-0.18760681,10.62099394,76.14430236,0
19-02-2019 11.27,1.55056E+12,1.2384033,8.17778,2.6889496,0.06933594,-0.024841309,-0.19293213,10.62099394,76.14430236,0
19-02-2019 11.27,1.55056E+12,0.16101074,5.386139,9.162872,-0.3376007,0.009246826,-0.1822815,10.62099394,76.14430236,0
19-02-2019 11.27,1.55056E+12,1.0348969,5.7835693,9.308929,-0.08406067,-0.051467896,-0.09599304,10.62099394,76.14430236,0
19-02-2019 11.27,1.55056E+12,0.61590576,7.3110657,7.858032,-0.052108765,-0.021636963,-0.05444336,10.62099394,76.14430236,0
19-02-2019 11.27,1.55056E+12,-0.42556763,5.0892487,8.12619,-0.15756226,-0.002471924,-0.04698181,10.62099394,76.14430236,0
19-02-2019 11.27,1.55056E+12,1.367691,5.7524414,7.1589355,-0.0435791,-0.044006348,-0.04486084,10.62099394,76.14430236,0
19-02-2019 11.27,1.55056E+12,0.95588684,3.9304657,9.964935,-0.1096344,-0.028030396,-0.09492493,10.62099394,76.14430236,0
19-02-2019 11.27,1.55056E+12,0.36930847,7.5480957,4.896408,0.10874939,0.013519287,-0.029937744,10.62099394,76.14430236,0
19-02-2019 11.27,1.55056E+12,0.8673096,6.070877,6.3209534,-0.13519287,-0.018447876,-0.01928711,10.62099394,76.14430236,0
19-02-2019 11.27,1.55056E+12,0.73083496,5.932007,11.990433,-0.035064697,0.006057739,-0.08746338,10.62099394,76.14430236,0
19-02-2019 11.27,1.55056E+12,-0.001785278,5.738083,5.0113373,0.21420288,0.003921509,-0.16203308,10.62099394,76.14430236,0
19-02-2019 11.27,1.55056E+12,1.0899658,5.8984985,8.992889,-9.77E-04,-0.03868103,-0.10131836,10.62099394,76.14430236,0
19-02-2019 11.27,1.55056E+12,0.08200073,6.789139,5.9139404,0.1843872,0.008178711,-0.15138245,10.62099394,76.14430236,0
19-02-2019 11.27,1.55056E+12,1.0133514,5.2496643,10.0008545,0.05441284,-0.032287598,-0.12261963,10.62099394,76.14430236,0
19-02-2019 11.27,1.55056E+12,0.94869995,6.6885834,6.7710724,0.20355225,-0.024841309,-0.14179993,10.62099394,76.14430236,0
19-02-2019 11.27,1.55056E+12,0.04849243,5.967926,9.026413,0.086380005,-0.023773193,-0.15563965,10.62099394,76.14430236,0
19-02-2019 11.27,1.55056E+12,0.4914093,6.5233765,11.142883,-0.009490967,-0.08129883,-0.13114929,10.62099394,76.14430236,0
19-02-2019 11.27,1.55056E+12,0.75956726,5.3286743,7.15654,0.20994568,-0.05999756,-0.0927887,10.62099394,76.14430236,0
19-02-2019 11.27,1.55056E+12,0.7691345,7.030945,2.80867,0.15029907,-0.046142578,-0.06829834,10.62099394,76.14430236,0
19-02-2019 11.27,1.55056E+12,0.09158325,3.4803467,13.644821,-0.30030823,-0.08981323,-0.11090088,10.62099394,76.14430236,0
19-02-2019 11.27,1.55056E+12,0.6901245,8.0963745,6.1198425,0.2813263,-0.072769165,-0.061904907,10.62099394,76.14430236,0
19-02-2019 11.27,1.55056E+12,0.36212158,4.2033997,12.998383,-0.15011597,-0.058929443,-0.027816772,10.62099394,76.14430236,0
19-02-2019 11.27,1.55056E+12,1.288681,6.7723694,8.49968,0.2664032,-0.08129883,-0.05444336,10.62099394,76.14430236,0
19-02-2019 11.27,1.55056E+12,-0.13825989,5.5106354,10.810089,-0.05529785,-0.053604126,-0.059768677,10.62099394,76.14430236,0
19-02-2019 11.27,1.55056E+12,1.2743225,6.4826813,5.523697,0.20355225,-0.10153198,-0.07255554,10.62099394,76.14430236,0
19-02-2019 11.27,1.55056E+12,0.3717041,5.6925964,9.62735,0.06933594,-0.037628174,-0.078948975,10.62099394,76.14430236,0
19-02-2019 11.27,1.55056E+12,0.24241638,6.604782,5.3297577,0.19822693,-0.04827881,-0.07574463,10.62099394,76.14430236,0
19-02-2019 11.27,1.55056E+12,0.78590393,5.0294037,7.0487976,-0.038253784,-0.08236694,-0.07362366,10.62099394,76.14430236,0
19-02-2019 11.27,1.55056E+12,0.7451935,7.8904724,4.9730225,0.17160034,-0.0791626,-0.07574463,10.62099394,76.14430236,0
19-02-2019 11.27,1.55056E+12,0.88645935,5.6303406,11.76059,-0.15011597,-0.058929443,-0.048049927,10.62099394,76.14430236,0
19-02-2019 11.27,1.55056E+12,0.42677307,6.446762,4.2571564,0.19290161,-0.07597351,-0.005447388,10.62099394,76.14430236,0
19-02-2019 11.27,1.55056E+12,0.043701172,6.3103027,6.0647736,-0.063827515,-0.11112976,-0.07041931,10.62099394,76.14430236,0
19-02-2019 11.27,1.55056E+12,1.0971527,6.6095734,10.812485,-0.23640442,-0.1686554,-0.09599304,10.62099394,76.14430236,0
19-02-2019 11.27,1.55056E+12,1.1330566,5.196991,9.747055,-0.02973938,-0.06425476,-0.050186157,10.62099394,76.14430236,0
19-02-2019 11.27,1.55056E+12,0.07720947,6.8705444,9.905075,-0.021209717,-0.084487915,-0.004379273,10.62099394,76.14430236,0
19-02-2019 11.27,1.55056E+12,0.27114868,4.778,11.391876,-0.23852539,-0.12496948,-0.007568359,10.62099394,76.14430236,0
19-02-2019 11.27,1.55056E+12,0.5201416,5.742874,5.4470825,0.12472534,-0.11538696,0.028640747,10.62099394,76.14430236,0
19-02-2019 11.27,1.55056E+12,0.4985962,7.232071,2.7272644,-0.09791565,-0.098342896,0.031845093,10.62099394,76.14430236,0
19-02-2019 11.27,1.55056E+12,0.5584564,6.125946,11.530746,-0.34292603,-0.10153198,0.02545166,10.62099394,76.14430236,0
19-02-2019 11.27,1.55056E+12,0.6183014,5.122772,6.9865417,-0.1565094,-0.07597351,0.063797,10.62099394,76.14430236,0
19-02-2019 11.27,1.55056E+12,0.46746826,7.0381317,5.394409,0.11088562,-0.05467224,0.14157104,10.62099394,76.14430236,0
19-02-2019 11.27,1.55056E+12,-0.2866974,4.9527893,11.250626,-0.23640442,-0.086624146,0.15327454,10.62099394,76.14430236,0
19-02-2019 11.27,1.55056E+12,0.165802,6.683792,4.458267,0.24617004,-0.088760376,0.042495728,10.62099394,76.14430236,0
19-02-2019 11.27,1.55056E+12,1.2455902,6.0732727,7.5180664,-0.057434082,-0.0834198,0.054214478,10.62099394,76.14430236,0
19-02-2019 11.27,1.55056E+12,0.31663513,5.9391937,7.23555,-0.009490967,-0.035491943,0.032913208,10.62099394,76.14430236,0
19-02-2019 11.27,1.55056E+12,-0.39923096,4.667877,10.434204,-0.002044678,-0.08981323,0.057403564,10.62099394,76.14430236,0
19-02-2019 11.27,1.55056E+12,3.395584,7.011795,9.081482,0.23551941,-0.098342896,0.110672,10.62099394,76.14430236,0
19-02-2019 11.27,1.55056E+12,0.7068939,4.414093,8.571503,0.1375122,0.004989624,-0.01184082,10.62099394,76.14430236,0
19-02-2019 11.27,1.55056E+12,1.5735931,5.5944366,9.407089,0.15029907,-0.05039978,0.057403564,10.62099394,76.14430236,0
19-02-2019 11.27,1.55056E+12,-0.205307,7.6773834,4.7743073,0.11088562,0.019897461,-0.00970459,10.62099394,76.14430236,0
19-02-2019 11.27,1.55056E+12,0.78829956,4.4236603,10.683197,-0.2715454,-0.0791626,0.021194458,10.62099394,76.14430236,0
19-02-2019 11.27,1.55056E+12,1.0420837,6.125946,3.378479,0.08956909,-0.05467224,0.03717041,10.62099394,76.14430236,0
19-02-2019 11.27,1.55056E+12,1.8034363,4.7157593,8.506866,-0.28219604,-0.044006348,0.09043884,10.62099394,76.14430236,0
19-02-2019 11.27,1.55056E+12,0.39085388,5.2783966,8.415894,0.117263794,-3.36E-04,-0.03314209,10.62099394,76.14430236,0
19-02-2019 11.27,1.55056E+12,1.4850006,5.821884,12.8714905,-0.15969849,-0.074905396,0.01586914,10.62099394,76.14430236,0
19-02-2019 11.27,1.55056E+12,1.0301056,4.6894226,7.776642,-0.120285034,0.002853394,0.03503418,10.62099394,76.14430236,0
19-02-2019 11.27,1.55056E+12,1.6909027,7.512192,7.592285,0.11193848,-0.09408569,-0.07148743,10.62099394,76.14430236,0
19-02-2019 11.27,1.55056E+12,0.91519165,4.991089,6.814163,-0.3365326,0.05079651,-0.015029907,10.62099394,76.14430236,0
19-02-2019 11.27,1.55056E+12,0.99180603,6.509018,5.966614,0.01927185,-0.051467896,-0.005447388,10.62099394,76.14430236,0
19-02-2019 11.27,1.55056E+12,0.99658203,3.3295135,14.121262,-0.20657349,0.009246826,0.014801025,10.62099394,76.14430236,0
19-02-2019 11.27,1.55056E+12,1.0827789,4.584076,13.04866,0.17053223,-0.047210693,-0.002243042,10.62099394,76.14430236,0
19-02-2019 11.27,1.55056E+12,0.09637451,7.090805,7.513275,0.32392883,0.01777649,-0.03526306,10.62099394,76.14430236,0
19-02-2019 11.27,1.55056E+12,-0.27713013,8.496201,1.1279297,0.33032227,-0.009918213,0.07232666,10.62099394,76.14430236,0
19-02-2019 11.27,1.55056E+12,-0.31063843,2.6519623,12.945709,-0.22148132,-0.1537323,0.106414795,10.62099394,76.14430236,0
19-02-2019 11.27,1.55056E+12,1.0564423,6.9351807,5.370468,0.42193604,-0.077041626,0.019058228,10.62099394,76.14430236,0
19-02-2019 11.27,1.55056E+12,0.596756,2.8841858,11.138092,-0.085128784,-0.045074463,0.041427612,10.62099394,76.14430236,0
19-02-2019 11.27,1.55056E+12,0.9415283,5.276001,6.6489716,0.17799377,-0.04295349,0.10534668,10.62099394,76.14430236,0
19-02-2019 11.27,1.55056E+12,1.8130188,6.358185,3.4981995,-0.14265442,-0.030166626,0.07337952,10.62099394,76.14430236,0
19-02-2019 11.27,1.55056E+12,-1.2563477,5.33107,8.444611,-0.38233948,0.09979248,0.118133545,10.62099394,76.14430236,0
19-02-2019 11.27,1.55056E+12,0.40283203,6.3653564,9.246674,-0.3652954,-0.0834198,0.12664795,10.62099394,76.14430236,0
19-02-2019 11.27,1.55056E+12,0.40522766,3.394165,12.004791,-0.3376007,0.023101807,0.115997314,10.62099394,76.14430236,0
19-02-2019 11.27,1.55056E+12,0.5632324,7.457123,7.5587616,0.07891846,-0.035491943,0.12239075,10.62099394,76.14430236,0
19-02-2019 11.27,1.55056E+12,0.24960327,3.2433167,9.900284,-0.3130951,-0.02909851,0.055282593,10.62099394,76.14430236,0
19-02-2019 11.27,1.55056E+12,0.5560608,3.564148,6.6250305,0.06187439,0.04121399,0.20121765,10.62099394,76.14430236,0
19-02-2019 11.27,1.55056E+12,1.3246002,5.276001,13.829178,-0.0819397,0.024169922,0.044631958,10.62099394,76.14430236,0
19-02-2019 11.27,1.55056E+12,-0.43753052,0.564209,13.932129,0.20462036,0.05293274,0.069122314,10.62099394,76.14430236,0
19-02-2019 11.27,1.55056E+12,0.7044983,4.497879,11.317657,0.46348572,0.008178711,0.12878418,10.62099394,76.14430236,0
19-02-2019 11.27,1.55056E+12,1.0899658,6.2671967,1.4391785,0.43151855,0.020965576,0.12878418,10.62099394,76.14430236,0
19-02-2019 11.27,1.55056E+12,0.28311157,3.8466644,0.30433655,0.043762207,0.07102966,-0.034210205,10.62099394,76.14430236,0
19-02-2019 11.27,1.55056E+12,2.64859,5.881729,5.1549835,-0.3130951,0.08488464,0.036102295,10.62099394,76.14430236,0
19-02-2019 11.27,1.55056E+12,-0.8349762,3.8083496,11.348785,-0.20443726,0.18075562,0.030776978,10.62099394,76.14430236,0
19-02-2019 11.27,1.55056E+12,-1.4048004,6.5832367,5.9139404,0.11621094,-0.055725098,0.040359497,10.62099394,76.14430236,0
19-02-2019 11.27,1.55056E+12,2.3708649,6.9136353,9.359207,-0.013763428,-0.035491943,0.09788513,10.62099394,76.14430236,0
19-02-2019 11.27,1.55056E+12,-0.9139862,4.8043365,11.4206085,0.27067566,0.049728394,0.09895325,10.62099394,76.14430236,0
19-02-2019 11.27,1.55056E+12,1.0301056,8.158615,4.8437347,0.32286072,0.024169922,-0.00970459,10.62099394,76.14430236,0
19-02-2019 11.27,1.55056E+12,0.27833557,-3.156372,21.440338,-0.21722412,0.09234619,-0.002243042,10.62099394,76.14430236,0
19-02-2019 11.27,1.55056E+12,2.8784332,8.194534,8.521225,0.84484863,-0.037628174,-0.039535522,10.62099394,76.14430236,0
19-02-2019 11.27,1.55056E+12,0.7332306,1.7589111,14.485184,0.49864197,0.20739746,-0.013961792,10.62099394,76.14430236,0
19-02-2019 11.27,1.55056E+12,0.78829956,6.5951996,9.644119,0.37506104,0.058258057,-0.06297302,10.62099394,76.14430236,0
19-02-2019 11.27,1.55056E+12,1.6047211,2.4723969,10.999237,-0.059570312,0.028427124,-0.05444336,10.62099394,76.14430236,0
19-02-2019 11.27,1.55056E+12,0.07003784,5.1036224,7.216385,0.12472534,0.08169556,-0.16096497,10.62099394,76.14430236,0
19-02-2019 11.27,1.55056E+12,0.18974304,6.3222656,4.6258698,-0.25663757,0.006057739,-0.114105225,10.62099394,76.14430236,0
19-02-2019 11.27,1.55056E+12,1.3389587,4.0884705,7.8819733,-0.31202698,-0.023773193,-0.053375244,10.62099394,76.14430236,0
19-02-2019 11.27,1.55056E+12,1.3150177,6.125946,6.924301,-0.15863037,0.04547119,-0.028884888,10.62099394,76.14430236,0
19-02-2019 11.27,1.55056E+12,-0.1598053,4.675049,6.9171143,-0.22468567,0.049728394,-0.08213806,10.62099394,76.14430236,0
19-02-2019 11.27,1.55056E+12,2.7108307,4.1555176,10.477295,-0.24491882,0.010314941,-0.028884888,10.62099394,76.14430236,0
19-02-2019 11.27,1.55056E+12,-0.4734497,6.003845,8.320114,-0.020141602,0.11790466,-0.049118042,10.62099394,76.14430236,0
19-02-2019 11.27,1.55056E+12,0.8122406,2.793213,11.655243,-0.20657349,-3.36E-04,-0.06402588,10.62099394,76.14430236,0
19-02-2019 11.27,1.55056E+12,-0.41358948,5.422043,12.8164215,0.06826782,0.08274841,-0.10343933,10.62099394,76.14430236,0
19-02-2019 11.27,1.55056E+12,0.77153015,4.5936584,5.734375,0.034179688,-0.051467896,-0.07041931,10.62099394,76.14430236,0
19-02-2019 11.27,1.55056E+12,0.19932556,4.75885,9.651291,-0.042526245,0.03694153,-0.08320618,10.62099394,76.14430236,0
19-02-2019 11.27,1.55056E+12,0.10354614,5.3262787,9.823669,0.12472534,-0.07171631,-0.08001709,10.62099394,76.14430236,0
19-02-2019 11.27,1.55056E+12,1.4730377,3.8203278,12.960083,0.027786255,-0.037628174,0.045684814,10.62099394,76.14430236,0
19-02-2019 11.27,1.55056E+12,2.2248077,6.1834106,4.0249176,0.19822693,0.018844604,-0.006500244,10.62099394,76.14430236,0
19-02-2019 11.27,1.55056E+12,0.89364624,6.200165,6.1797028,0.098098755,0.010314941,-0.015029907,10.62099394,76.14430236,0
19-02-2019 11.27,1.55056E+12,-0.040100098,6.5066223,5.7918396,-0.06915283,0.025222778,-0.036331177,10.62099394,76.14430236,0
19-02-2019 11.27,1.55056E+12,0.4219818,7.9024353,0.7233124,0.20462036,-0.06744385,-0.05444336,10.62099394,76.14430236,0
19-02-2019 11.27,1.55056E+12,0.82899475,2.2233887,13.343155,-0.4068451,-0.08236694,-0.04698181,10.62099394,76.14430236,0
19-02-2019 11.27,1.55056E+12,2.1122894,6.0445404,7.5539703,0.24403381,-0.041885376,-0.02142334,10.62099394,76.14430236,0
19-02-2019 11.27,1.55056E+12,0.12271118,4.057358,12.399841,0.10874939,0.03907776,-0.037399292,10.62099394,76.14430236,0
19-02-2019 11.27,1.55056E+12,2.8688507,7.200943,7.4917297,0.26533508,-0.10580444,0.08830261,10.62099394,76.14430236,0
19-02-2019 11.27,1.55056E+12,-0.2962799,3.9424286,13.122894,-0.15011597,0.10618591,0.08616638,10.62099394,76.14430236,0
19-02-2019 11.27,1.55056E+12,-0.2819214,5.9391937,9.098236,0.15029907,0.006057739,0.14157104,10.62099394,76.14430236,0
19-02-2019 11.27,1.55056E+12,0.15861511,4.5481567,9.110199,-0.045715332,-0.04081726,0.15861511,10.62099394,76.14430236,0
19-02-2019 11.27,1.55056E+12,-0.13346863,4.9192657,8.466171,0.060806274,0.04866028,0.040359497,10.62099394,76.14430236,0
19-02-2019 11.27,1.55056E+12,0.3645172,6.087631,4.8030396,0.046966553,-0.033355713,0.06700134,10.62099394,76.14430236,0
19-02-2019 11.27,1.55056E+12,2.1889038,4.0717163,6.6657257,-0.15116882,0.001800537,0.1191864,10.62099394,76.14430236,0
19-02-2019 11.27,1.55056E+12,0.43634033,4.651108,10.61377,-0.016952515,0.061447144,-0.004379273,10.62099394,76.14430236,0
19-02-2019 11.27,1.55056E+12,1.5735931,4.6104126,9.160477,0.0309906,0.004989624,0.07019043,10.62099394,76.14430236,0
19-02-2019 11.27,1.55056E+12,1.0899658,4.591263,7.8197327,0.062942505,0.100860596,0.02331543,10.62099394,76.14430236,0
19-02-2019 11.27,1.55056E+12,-0.06404114,5.077286,12.466873,-0.098983765,0.04547119,-0.07041931,10.62099394,76.14430236,0
19-02-2019 11.27,1.55056E+12,1.8082275,5.4292297,7.755081,0.11514282,-0.009918213,-0.03526306,10.62099394,76.14430236,0
19-02-2019 11.27,1.55056E+12,0.19932556,8.165802,10.625732,0.15988159,0.034820557,-0.17056274,10.62099394,76.14430236,0
19-02-2019 11.27,1.55056E+12,0.45550537,7.3565674,10.91304,0.05015564,-0.004592896,-0.13754272,10.62099394,76.14430236,0
19-02-2019 11.27,1.55056E+12,1.2048798,5.122772,6.876419,0.27493286,-0.07171631,-0.11943054,10.62099394,76.14430236,0
19-02-2019 11.27,1.55056E+12,-0.13825989,6.4515533,5.83255,0.20887756,-0.05039978,-0.05444336,10.62099394,76.14430236,0
19-02-2019 11.27,1.55056E+12,1.3509369,4.9982758,6.0288696,0.072525024,-0.051467896,0.009475708,10.62099394,76.14430236,0
19-02-2019 11.27,1.55056E+12,0.6973114,4.6367493,11.358353,0.09916687,0.016708374,0.016921997,10.62099394,76.14430236,0
19-02-2019 11.27,1.55056E+12,0.64224243,6.7412567,6.8620453,0.2674713,-0.028030396,0.054214478,10.62099394,76.14430236,0
19-02-2019 11.27,1.55056E+12,0.9295502,3.805954,7.6808624,0.06826782,0.01777649,-0.015029907,10.62099394,76.14430236,0
19-02-2019 11.27,1.55056E+12,0.10115051,5.474716,6.481369,0.07572937,0.007125855,-0.007568359,10.62099394,76.14430236,0
19-02-2019 11.27,1.55056E+12,1.7364044,7.449936,6.6130524,0.15135193,0.002853394,0.040359497,10.62099394,76.14430236,0
19-02-2019 11.27,1.55056E+12,0.21847534,4.742096,9.692001,-0.28326416,0.008178711,-0.061904907,10.62099394,76.14430236,0
19-02-2019 11.27,1.55056E+12,1.6549988,6.8513794,3.2587738,-0.1458435,-0.007797241,0.003082275,10.62099394,76.14430236,0
19-02-2019 11.27,1.55056E+12,0.9702606,3.9807434,10.781357,-0.49525452,-3.36E-04,0.007339478,10.62099394,76.14430236,0
19-02-2019 11.27,1.55056E+12,1.3581085,6.2576294,0.8885193,-0.3045807,0.018844604,-0.003311157,10.62099394,76.14430236,0
19-02-2019 11.27,1.55056E+12,-0.80384827,4.512253,-0.08592224,-0.5144348,0.061447144,0.042495728,10.62099394,76.14430236,0
19-02-2019 11.27,1.55056E+12,1.4514923,4.789978,1.6211395,-0.6294861,-0.09088135,0.03503418,10.62099394,76.14430236,0
19-02-2019 11.27,1.55056E+12,1.0564423,2.5394287,2.207718,-0.58047485,-0.031234741,-0.050186157,10.62099394,76.14430236,0
19-02-2019 11.27,1.55056E+12,1.9853973,5.129959,12.739807,-0.647583,0.079559326,-0.008636475,10.62099394,76.14430236,0
19-02-2019 11.27,1.55056E+12,-0.50457764,4.3494415,8.004089,-0.10003662,-0.046142578,-0.20783997,10.62099394,76.14430236,0
19-02-2019 11.27,1.55056E+12,2.6773224,1.4931641,22.134659,-0.19911194,0.14241028,-0.02355957,10.62099394,76.14430236,0
19-02-2019 11.27,1.55056E+12,-1.6657562,3.3582458,6.9578247,0.5124817,-0.058929443,0.010543823,10.62099394,76.14430236,0
19-02-2019 11.27,1.55056E+12,-0.35853577,5.5681,17.183456,0.7457733,-0.046142578,0.16287231,10.62099394,76.14430236,0
19-02-2019 11.27,1.55056E+12,-0.62667847,-2.4572754,16.649551,0.12686157,-0.039749146,0.01373291,10.62099394,76.14430236,0
19-02-2019 11.27,1.55056E+12,-0.2819214,3.8897552,16.378998,1.2773438,-0.074905396,0.15861511,10.62099394,76.14430236,0
19-02-2019 11.27,1.55056E+12,0.8122406,-1.1620026,11.937759,0.50502014,-0.047210693,0.12132263,10.62099394,76.14430236,0
19-02-2019 11.27,1.55056E+12,1.0348969,14.108215,-5.0921936,2.5609894,-0.08555603,-0.059768677,10.62099394,76.14430236,0
19-02-2019 11.27,1.55056E+12,1.0779877,-5.878586,22.6949,-1.7639923,0.05079651,0.22679138,10.62099394,76.14430236,0
19-02-2019 11.27,1.55056E+12,1.1139069,14.780975,-8.561401,1.3167572,-0.061050415,0.09788513,10.62099394,76.14430236,0
19-02-2019 11.27,1.55056E+12,-0.96665955,0.032699585,14.86586,-1.3421478,0.08807373,0.14157104,10.62099394,76.14430236,0
19-02-2019 11.27,1.55056E+12,1.4395142,11.828934,-9.327545,0.7191467,-0.09408569,0.063797,10.62099394,76.14430236,0
19-02-2019 11.27,1.55056E+12,-1.7711029,-0.886673,28.44339,-2.0377655,0.2457428,0.15008545,10.62099394,76.14430236,0
19-02-2019 11.27,1.55056E+12,-1.0576324,7.002228,-3.5766754,0.67440796,0.067840576,0.18417358,10.62099394,76.14430236,0
19-02-2019 11.27,1.55056E+12,-1.2036743,-3.9871674,31.812027,-1.793808,0.22869873,0.118133545,10.62099394,76.14430236,0
19-02-2019 11.27,1.55056E+12,-4.684845,7.916809,-14.697739,0.9588318,0.013519287,0.14369202,10.62099394,76.14430236,0
19-02-2019 11.27,1.55056E+12,6.9150543,4.4428253,2.681778,-1.0332184,-3.36E-04,0.16926575,10.62099394,76.14430236,0
19-02-2019 11.27,1.55056E+12,2.1529846,5.553726,16.876999,-0.6198883,0.43322754,-0.1162262,10.62099394,76.14430236,0
19-02-2019 11.27,1.55056E+12,1.0229187,5.5872498,4.994568,0.14176941,0.12004089,-0.4176941,10.62099394,76.14430236,0
19-02-2019 11.27,1.55056E+12,1.8944092,1.3542938,10.668823,0.3633423,0.45240784,-0.18333435,10.62099394,76.14430236,0
19-02-2019 11.27,1.55056E+12,-1.1893158,7.107559,13.963257,0.09063721,0.28089905,-0.54660034,10.62099394,76.14430236,0
19-02-2019 11.27,1.55056E+12,0.65901184,-1.3343964,7.168503,0.3367157,-0.049331665,-0.60517883,10.62099394,76.14430236,0
19-02-2019 11.27,1.55056E+12,-3.107071,5.6135864,0.17504883,0.5934448,0.10406494,-0.89494324,10.62099394,76.14430236,0
19-02-2019 11.27,1.55056E+12,-0.9906006,-10.827393,20.978256,-0.30244446,-0.2602539,-0.6105194,10.62099394,76.14430236,0
19-02-2019 11.27,1.55056E+12,4.3173523,1.3207855,18.050156,0.916214,-0.35186768,-0.7724304,10.62099394,76.14430236,0
19-02-2019 11.27,1.55056E+12,2.7802734,4.3015594,18.536179,1.9868164,0.13815308,-0.43048096,10.62099394,76.14430236,0
19-02-2019 11.27,1.55056E+12,0.24720764,-15.551163,34.938858,-0.9863434,-0.107925415,-0.19718933,10.62099394,76.14430236,0
19-02-2019 11.27,1.55056E+12,-0.4303589,16.978851,-25.138855,3.016922,-0.16438293,-0.16629028,10.62099394,76.14430236,0
19-02-2019 11.27,1.55056E+12,-2.7335815,-4.456436,20.583221,-2.7823792,-0.15161133,0.06060791,10.62137712,76.1442411,4.51
19-02-2019 11.27,1.55056E+12,-0.006576538,6.4515533,-10.94603,0.82992554,-0.26771545,0.010543823,10.62137712,76.1442411,4.51
19-02-2019 11.27,1.55056E+12,1.046875,5.5585175,24.753922,-1.3996582,-0.23043823,0.1341095,10.62137712,76.1442411,4.51
19-02-2019 11.27,1.55056E+12,0.002990723,3.9113007,-2.1976166,1.4318085,-0.19102478,-0.029937744,10.62137712,76.1442411,4.51
19-02-2019 11.27,1.55056E+12,1.5975342,1.876236,16.42688,-1.0076447,-0.3028717,0.05101013,10.62137712,76.1442411,4.51
19-02-2019 11.27,1.55056E+12,-1.4024048,-0.070251465,18.20578,0.44537354,-0.10153198,0.13304138,10.62137712,76.1442411,4.51
19-02-2019 11.27,1.55056E+12,1.3628998,2.496338,14.59053,-0.073410034,-0.35507202,-0.05870056,10.62137712,76.1442411,4.51
19-02-2019 11.27,1.55056E+12,0.675766,-0.8196411,18.888123,0.20355225,-0.20700073,0.047821045,10.62137712,76.1442411,4.51
19-02-2019 11.27,1.55056E+12,-0.80145264,8.489014,14.157181,0.7095642,-0.17823792,0.09681702,10.62137712,76.1442411,4.51
19-02-2019 11.27,1.55056E+12,-0.025741577,1.2106476,5.789444,0.43151855,-0.29541016,0.20547485,10.62137712,76.1442411,4.51
19-02-2019 11.27,1.55056E+12,0.6063385,7.102783,6.5699615,0.17585754,-0.11325073,0.2906952,10.62137712,76.1442411,4.51
19-02-2019 11.27,1.55056E+12,-0.71765137,-3.4460754,12.742203,-0.05529785,-0.22190857,0.24702454,10.62137712,76.1442411,4.51
19-02-2019 11.27,1.55056E+12,0.3717041,4.461975,-4.342819,0.7319336,-0.18035889,0.29389954,10.62137712,76.1442411,4.51
19-02-2019 11.27,1.55056E+12,-1.3545227,7.442749,-11.032211,0.1407013,-0.181427,0.39723206,10.62137712,76.1442411,4.51
19-02-2019 11.27,1.55056E+12,6.491287,-3.7190094,18.912064,-1.6361542,-0.26239014,0.4824524,10.62137712,76.1442411,4.51
19-02-2019 11.27,1.55056E+12,-1.146225,2.7572937,18.548141,-0.9778137,0.22337341,0.34609985,10.62137712,76.1442411,4.51
19-02-2019 11.27,1.55056E+12,0.8625183,13.9478,-11.125595,0.79371643,-0.17398071,0.17884827,10.62137712,76.1442411,4.51
19-02-2019 11.27,1.55056E+12,-3.798996,-1.281723,46.20836,-0.01802063,-0.14414978,0.19056702,10.62137712,76.1442411,4.51
19-02-2019 11.27,1.55056E+12,4.5400085,-0.6472473,23.16417,0.9620209,-0.31140137,-0.028884888,10.62137712,76.1442411,4.51
19-02-2019 11.27,1.55056E+12,4.9949036,10.950256,12.174789,1.1111603,0.10939026,-0.027816772,10.62137712,76.1442411,4.51
19-02-2019 11.27,1.55056E+12,-1.3976135,-2.052658,12.919373,0.109817505,-0.010986328,-0.04272461,10.62137712,76.1442411,4.51
19-02-2019 11.27,1.55056E+12,2.4019928,-4.341507,18.777985,0.2344513,-0.037628174,-0.034210205,10.62137712,76.1442411,4.51
19-02-2019 11.27,1.55056E+12,0.50338745,13.641342,-11.745682,2.3692474,-0.032287598,0.18630981,10.62137712,76.1442411,4.51
19-02-2019 11.27,1.55056E+12,2.4642334,11.7690735,-13.81427,2.3138428,-0.18888855,0.06272888,10.62137712,76.1442411,4.51
19-02-2019 11.27,1.55056E+12,-6.7151337,-20.035507,42.954636,-4.116089,0.38102722,0.52505493,10.62137712,76.1442411,4.51
19-02-2019 11.27,1.55056E+12,3.2351685,26.304276,-23.2594,0.28344727,-0.11645508,0.77326965,10.62137712,76.1442411,4.51
19-02-2019 11.27,1.55056E+12,3.2758636,18.999557,-13.725693,0.04057312,0.4023285,0.6177368,10.62137712,76.1442411,4.51
19-02-2019 11.27,1.55056E+12,0.4339447,2.683075,14.023102,-3.054016,0.056121826,-0.15351868,10.62137712,76.1442411,4.51
19-02-2019 11.27,1.55056E+12,1.7675171,14.311722,-19.601059,1.5393982,0.1711731,0.24916077,10.62137712,76.1442411,4.51
19-02-2019 11.27,1.55056E+12,1.8465271,3.1212158,22.47464,-1.6191101,0.08274841,0.19589233,10.62137712,76.1442411,4.51
19-02-2019 11.27,1.55056E+12,-1.2587433,3.3127594,15.890579,-0.25663757,0.2531891,-0.001174927,10.62137712,76.1442411,4.51
19-02-2019 11.27,1.55056E+12,3.3261414,2.3335266,1.6235352,-0.20443726,0.12643433,-0.08001709,10.62137712,76.1442411,4.51
19-02-2019 11.27,1.55056E+12,2.7994232,8.998978,8.0208435,-0.24705505,0.20632935,-0.14073181,10.62137712,76.1442411,4.51
19-02-2019 11.27,1.55056E+12,2.0093384,-0.5203552,16.240143,-0.39405823,0.25532532,-0.20783997,10.62137712,76.1442411,4.51
19-02-2019 11.27,1.55056E+12,0.25439453,4.256073,2.5668488,0.4389801,0.18075562,-0.123687744,10.62137712,76.1442411,4.51
19-02-2019 11.27,1.55056E+12,0.2855072,5.706955,14.382233,-0.4164276,0.09660339,-0.19612122,10.62137712,76.1442411,4.51
19-02-2019 11.27,1.55056E+12,-0.052078247,4.631958,2.995407,0.24935913,0.11790466,-0.06402588,10.62137712,76.1442411,4.51
19-02-2019 11.27,1.55056E+12,0.18255615,4.473938,4.879654,-0.4675598,0.07316589,0.026519775,10.62137712,76.1442411,4.51
19-02-2019 11.27,1.55056E+12,1.4323273,11.283051,-0.82333374,0.47946167,0.13601685,0.02758789,10.62137712,76.1442411,4.51
19-02-2019 11.27,1.55056E+12,-1.1893158,-5.3710175,14.209854,-0.24491882,0.1285553,0.054214478,10.62137712,76.1442411,4.51
19-02-2019 11.27,1.55056E+12,2.6581726,3.3103638,8.28421,0.6701355,0.09020996,0.0914917,10.62137712,76.1442411,4.51
19-02-2019 11.27,1.55056E+12,0.12988281,7.8521576,5.8038177,1.2592316,0.20526123,-0.078948975,10.62137712,76.1442411,4.51
19-02-2019 11.27,1.55056E+12,0.1083374,0.34873962,17.861008,-0.5463867,0.17329407,-0.10983276,10.62137712,76.1442411,4.51
19-02-2019 11.27,1.55056E+12,1.6693573,8.431564,0.3210907,0.31541443,0.20419312,0.021194458,10.62137712,76.1442411,4.51
19-02-2019 11.27,1.55056E+12,0.44352722,5.790756,12.397446,-0.52615356,0.18714905,-0.4464569,10.62137712,76.1442411,4.51
19-02-2019 11.27,1.55056E+12,0.9870148,6.034958,7.3049774,-0.40789795,0.12962341,-0.43154907,10.62137712,76.1442411,4.51
19-02-2019 11.27,1.55056E+12,2.4690247,4.3853607,11.209915,-0.45370483,0.07316589,-0.32714844,10.62137712,76.1442411,4.51
19-02-2019 11.27,1.55056E+12,0.75956726,4.9862976,10.383926,-0.10110474,0.09553528,-0.42622375,10.62137712,76.1442411,4.51
19-02-2019 11.27,1.55056E+12,0.5680237,3.0422058,10.869949,-0.19059753,0.06890869,-0.39959717,10.62137712,76.1442411,4.51
19-02-2019 11.27,1.55056E+12,0.39085388,3.8083496,10.544327,0.20036316,0.07209778,-0.2696228,10.62137712,76.1442411,4.51
19-02-2019 11.27,1.55056E+12,0.87927246,7.411621,8.415894,0.29197693,0.010314941,-0.14819336,10.62137712,76.1442411,4.51
19-02-2019 11.27,1.55056E+12,0.9247589,0.133255,14.173935,0.025665283,0.06997681,-0.1865387,10.62137712,76.1442411,4.51
19-02-2019 11.27,1.55056E+12,0.9702606,7.593582,0.6251526,0.7138214,0.03907776,-0.158844,10.62137712,76.1442411,4.51
19-02-2019 11.27,1.55056E+12,0.15144348,3.4588013,8.2339325,-0.11175537,0.067840576,-0.15031433,10.62137712,76.1442411,4.51
19-02-2019 11.27,1.55056E+12,1.3150177,3.442047,7.525238,-0.042526245,-0.035491943,-0.18440247,10.62137712,76.1442411,4.51
19-02-2019 11.27,1.55056E+12,0.7332306,6.078064,2.5836182,-0.1458435,0.020965576,-0.21743774,10.62137712,76.1442411,4.51
19-02-2019 11.27,1.55056E+12,0.28071594,5.675827,3.8190155,-0.3173523,-0.016311646,-0.23660278,10.62137712,76.1442411,4.51
19-02-2019 11.27,1.55056E+12,3.4650116,3.5761108,4.374481,-0.2949829,-0.06851196,-0.29519653,10.62137712,76.1442411,4.51
19-02-2019 11.27,1.55056E+12,-2.7431488,3.3031769,22.304657,-0.821228,0.002853394,-0.44326782,10.62137712,76.1442411,4.51
19-02-2019 11.27,1.55056E+12,1.4275513,2.2640991,14.348724,-0.0627594,-0.031234741,-0.22062683,10.62137712,76.1442411,4.51
19-02-2019 11.27,1.55056E+12,-0.24839783,0.6575928,29.434586,-0.38020325,-0.08236694,-0.13327026,10.62137712,76.1442411,4.51
19-02-2019 11.27,1.55056E+12,-1.8955994,8.206497,7.3911743,0.355896,-0.11857605,0.004150391,10.62137712,76.1442411,4.51
19-02-2019 11.27,1.55056E+12,-0.40881348,10.251144,-7.2781067,0.8650818,-0.11325073,0.028640747,10.62137712,76.1442411,4.51
19-02-2019 11.27,1.55056E+12,1.1043243,2.5968933,20.185776,-0.4633026,-0.18463135,0.03929138,10.62137712,76.1442411,4.51
19-02-2019 11.27,1.55056E+12,1.6669617,2.6375885,1.1111755,0.9737396,-0.21765137,0.004150391,10.62137712,76.1442411,4.51
19-02-2019 11.27,1.55056E+12,2.169754,6.690979,12.588974,0.059753418,-0.016311646,0.05101013,10.62137712,76.1442411,4.51
19-02-2019 11.27,1.55056E+12,-0.36091614,19.91655,-12.710556,1.9846802,-0.10899353,0.08830261,10.62137712,76.1442411,4.51
19-02-2019 11.27,1.55056E+12,1.6214752,-1.2146759,14.9544525,-0.58473206,-0.15905762,-0.029937744,10.62137712,76.1442411,4.51
19-02-2019 11.27,1.55056E+12,0.8242035,4.165085,2.164627,0.65948486,-0.08129883,0.012664795,10.62137712,76.1442411,4.51
19-02-2019 11.27,1.55056E+12,1.0851746,-2.5123444,20.908829,0.22698975,-0.077041626,0.049957275,10.62137712,76.1442411,4.51
19-02-2019 11.27,1.55056E+12,1.3509369,14.328476,4.36969,1.2411194,-0.17823792,-0.04698181,10.62137712,76.1442411,4.51
19-02-2019 11.27,1.55056E+12,-2.4606323,-1.4229736,21.385284,0.90023804,-0.10580444,-0.025680542,10.62137712,76.1442411,4.51
19-02-2019 11.27,1.55056E+12,2.7611237,2.2305756,21.672577,-0.06062317,-0.28689575,0.052078247,10.62137712,76.1442411,4.51
19-02-2019 11.27,1.55056E+12,-1.2635345,6.312683,12.708694,1.6576385,-0.13882446,0.03503418,10.62137712,76.1442411,4.51
19-02-2019 11.27,1.55056E+12,-2.3744507,-0.9154053,21.641449,-0.93307495,-0.098342896,0.12557983,10.62137712,76.1442411,4.51
19-02-2019 11.27,1.55056E+12,2.3995972,4.924057,6.7160034,0.05229187,-0.3263092,0.10108948,10.62137712,76.1442411,4.51
19-02-2019 11.27,1.55056E+12,-1.1725616,1.9337006,18.533783,-0.47181702,0.018844604,0.07019043,10.62137712,76.1442411,4.51
19-02-2019 11.27,1.55056E+12,1.3892365,6.884903,0.11279297,0.21315002,-0.16651917,0.13517761,10.62137712,76.1442411,4.51
19-02-2019 11.27,1.55056E+12,0.65901184,4.6774445,3.7304382,-0.22254944,-0.016311646,0.22998047,10.62137712,76.1442411,4.51
19-02-2019 11.27,1.55056E+12,-1.2276306,4.370987,9.553131,0.05441284,-0.09513855,0.104278564,10.62137712,76.1442411,4.51
19-02-2019 11.27,1.55056E+12,0.8553314,6.209732,-1.3093567,0.5348511,-0.074905396,0.16394043,10.62137712,76.1442411,4.51
19-02-2019 11.27,1.55056E+12,0.59436035,5.474716,8.9066925,0.06826782,-0.03868103,0.17991638,10.62137712,76.1442411,4.51
19-02-2019 11.27,1.55056E+12,0.33338928,3.9544067,11.200348,0.04057312,-0.030166626,0.069122314,10.62137712,76.1442411,4.51
19-02-2019 11.27,1.55056E+12,1.9159698,4.596054,3.2420197,0.26960754,-0.016311646,0.03929138,10.62137712,76.1442411,4.51
19-02-2019 11.27,1.55056E+12,-0.2747345,8.884064,8.399124,0.072525024,0.03907776,0.069122314,10.62137712,76.1442411,4.51
19-02-2019 11.27,1.55056E+12,0.6781616,-0.14926147,6.457428,0.09384155,-0.09408569,0.01373291,10.62137712,76.1442411,4.51
19-02-2019 11.27,1.55056E+12,3.826538,6.1403046,16.374207,-0.004165649,-0.074905396,0.104278564,10.62137712,76.1442411,4.51
19-02-2019 11.27,1.55056E+12,-1.1222839,4.7923737,9.658478,0.2078247,0.09020996,0.1894989,10.62137712,76.1442411,4.51
19-02-2019 11.27,1.55056E+12,2.8161774,4.646332,9.584259,-0.17460632,-0.100479126,0.0914917,10.62137712,76.1442411,4.51
19-02-2019 11.27,1.55056E+12,0.20172119,6.5904236,7.824524,-0.42921448,0.07209778,0.044631958,10.62137712,76.1442411,4.51
19-02-2019 11.27,1.55056E+12,1.3413544,6.513809,6.9290924,-0.23106384,-0.004592896,0.1383667,10.62137712,76.1442411,4.51
19-02-2019 11.27,1.55056E+12,2.1793213,3.793991,9.330475,-0.44732666,0.07102966,0.04675293,10.62137712,76.1442411,4.51
19-02-2019 11.27,1.55056E+12,0.25439453,4.8163147,7.7526855,-0.03186035,0.08488464,0.01373291,10.62137712,76.1442411,4.51
19-02-2019 11.27,1.55056E+12,2.1410217,5.663864,4.412781,-0.16183472,0.065704346,0.049957275,10.62137712,76.1442411,4.51
19-02-2019 11.27,1.55056E+12,1.0899658,12.396362,4.4199677,0.3047638,0.12643433,-0.008636475,10.62137712,76.1442411,4.51
19-02-2019 11.27,1.55056E+12,-0.56204224,0.47802734,9.873962,-0.8435974,0.059310913,0.036102295,10.62137712,76.1442411,4.51
19-02-2019 11.27,1.55056E+12,2.1912994,8.43396,-11.254868,0.7883911,-0.039749146,0.003082275,10.62137712,76.1442411,4.51
19-02-2019 11.27,1.55056E+12,-1.20607,6.102005,11.434982,-0.8883362,0.11364746,0.031845093,10.62137712,76.1442411,4.51
19-02-2019 11.27,1.55056E+12,-0.7487793,5.711746,1.8581696,0.048034668,-0.031234741,-0.053375244,10.62137712,76.1442411,4.51
19-02-2019 11.27,1.55056E+12,2.8281555,5.161072,11.1788025,-0.4356079,-0.057861328,0.063797,10.62137712,76.1442411,4.51
19-02-2019 11.27,1.55056E+12,-0.27952576,4.9575653,18.758835,-0.263031,0.10618591,-0.045928955,10.62137712,76.1442411,4.51
19-02-2019 11.27,1.55056E+12,2.1481934,4.529007,1.9754791,0.31860352,0.06037903,-0.08427429,10.62137712,76.1442411,4.51
19-02-2019 11.27,1.55056E+12,1.9039917,6.817871,16.144363,-0.22361755,0.08062744,-0.053375244,10.62137712,76.1442411,4.51
19-02-2019 11.27,1.55056E+12,0.4507141,-1.949707,18.473923,-0.025482178,0.11683655,-0.060836792,10.62137712,76.1442411,4.51
19-02-2019 11.27,1.55056E+12,4.2239685,9.99736,0.5413513,1.15271,-0.077041626,0.04675293,10.62137712,76.1442411,4.51
19-02-2019 11.27,1.55056E+12,2.7108307,3.0493927,10.4557495,0.057617188,0.21910095,-0.17375183,10.62137712,76.1442411,4.51
19-02-2019 11.27,1.55056E+12,-0.025741577,-0.59458923,11.600174,0.011810303,-0.012054443,-0.040603638,10.62137712,76.1442411,4.51
19-02-2019 11.27,1.55056E+12,0.7475891,12.671692,-1.393158,0.32818604,0.087020874,0.040359497,10.62137712,76.1442411,4.51
19-02-2019 11.27,1.55056E+12,-1.304245,7.7252655,1.8198547,-0.14797974,-0.016311646,-0.10983276,10.62137712,76.1442411,4.51
19-02-2019 11.27,1.55056E+12,3.9917297,4.291977,6.8979645,-0.9362793,-0.056793213,-0.060836792,10.62137712,76.1442411,4.51
19-02-2019 11.27,1.55056E+12,0.043701172,14.704361,-4.2805634,0.88212585,0.23402405,-0.09385681,10.62137712,76.1442411,4.51
19-02-2019 11.27,1.55056E+12,-0.6865387,1.7900391,15.864243,-0.9160309,-0.044006348,-0.07788086,10.62137712,76.1442411,4.51
19-02-2019 11.27,1.55056E+12,3.4290924,7.1746063,3.0983582,0.5540314,-0.11112976,0.15434265,10.62137712,76.1442411,4.51
19-02-2019 11.27,1.55056E+12,2.047638,7.6342926,4.350525,-0.30137634,0.16584778,0.14582825,10.62137712,76.1442411,4.51
19-02-2019 11.27,1.55056E+12,-3.3081818,8.041306,12.466873,-0.06489563,0.18289185,-0.25471497,10.62137712,76.1442411,4.51
19-02-2019 11.27,1.55056E+12,0.007781982,3.477951,1.1925812,-0.14797974,-0.26664734,-0.041656494,10.62137712,76.1442411,4.51
19-02-2019 11.27,1.55056E+12,4.7099915,11.170532,4.5300903,0.25042725,0.006057739,0.0872345,10.62137712,76.1442411,4.51
19-02-2019 11.27,1.55056E+12,1.0492554,1.6104736,15.406952,-0.70191956,0.07209778,-0.07469177,10.62137712,76.1442411,4.51
19-02-2019 11.27,1.55056E+12,-1.9339142,9.12587,-1.8791809,0.7191467,0.17436218,-0.27815247,10.62137712,76.1442411,4.51
19-02-2019 11.27,1.55056E+12,1.2384033,3.3367004,12.881073,-0.9543915,-0.107925415,-0.14712524,10.62137712,76.1442411,4.51
19-02-2019 11.27,1.55056E+12,2.260727,7.7923126,8.870789,0.2536316,0.04121399,0.1660614,10.62137712,76.1442411,4.51
19-02-2019 11.27,1.55056E+12,0.8601227,9.130661,5.0568237,-0.39938354,0.11683655,0.069122314,10.62137712,76.1442411,4.51
19-02-2019 11.27,1.55056E+12,1.2575531,3.2816315,5.030487,-0.11602783,0.032684326,-0.05870056,10.62137712,76.1442411,4.51
19-02-2019 11.27,1.55056E+12,-0.9618683,10.449875,-1.6349792,-0.6603699,0.091278076,0.005203247,10.62137712,76.1442411,4.51
19-02-2019 11.27,1.55056E+12,0.3310089,8.4483185,-0.8712158,-0.26089478,-0.057861328,-0.16949463,10.62137712,76.1442411,4.51
19-02-2019 11.27,1.55056E+12,1.9303284,3.1595306,8.250687,-0.53041077,-0.012054443,-0.08427429,10.62137712,76.1442411,4.51
19-02-2019 11.27,1.55056E+12,-1.1390381,2.8482819,20.516174,-0.5165558,0.12110901,9.46E-04,10.62137712,76.1442411,4.51
19-02-2019 11.27,1.55056E+12,-3.24115,6.7292786,1.1111755,0.117263794,-0.013122559,-0.04486084,10.62137712,76.1442411,4.51
19-02-2019 11.27,1.55056E+12,2.552826,6.588028,10.43898,-0.27793884,-0.16970825,-0.19612122,10.62137712,76.1442411,4.51
19-02-2019 11.27,1.55056E+12,0.23043823,6.3533936,9.648895,-0.5080414,-0.047210693,-0.15138245,10.62137712,76.1442411,4.51
19-02-2019 11.27,1.55056E+12,1.3868408,6.1355133,13.362305,-0.0393219,-0.025909424,-0.09918213,10.62137712,76.1442411,4.51
19-02-2019 11.27,1.55056E+12,-0.14544678,5.371765,5.552414,0.10128784,-0.018447876,-0.2919922,10.62137712,76.1442411,4.51
19-02-2019 11.27,1.55056E+12,2.0691986,-1.8036499,16.544205,-0.28753662,-0.181427,-0.19612122,10.62137712,76.1442411,4.51
19-02-2019 11.27,1.55056E+12,4.561554,18.508759,-2.5232239,0.83099365,-0.057861328,-0.25152588,10.62137712,76.1442411,4.51
19-02-2019 11.27,1.55056E+12,-8.398254,6.9136353,-2.7913666,-0.32695007,0.16903687,-0.09385681,10.62137712,76.1442411,4.51
19-02-2019 11.27,1.55056E+12,3.347702,3.8993378,7.3049774,-1.0747528,-0.5020752,-0.12049866,10.62137712,76.1442411,4.51
19-02-2019 11.27,1.55056E+12,1.8345642,7.6295013,8.454193,0.12898254,0.032684326,0.21400452,10.62137712,76.1442411,4.51
19-02-2019 11.27,1.55056E+12,-1.2467804,8.872086,-0.33251953,-0.009490967,-0.04081726,0.15008545,10.62137712,76.1442411,4.51
19-02-2019 11.27,1.55056E+12,0.596756,1.5913239,12.253784,-0.67422485,-0.21339417,-0.040603638,10.62137712,76.1442411,4.51
19-02-2019 11.27,1.55056E+12,-0.11911011,8.572815,8.437439,-0.2395935,-0.16545105,0.01373291,10.62137712,76.1442411,4.51
19-02-2019 11.27,1.55056E+12,0.61351013,4.91687,10.393494,-0.35890198,-0.16758728,0.06272888,10.62137712,76.1442411,4.51
19-02-2019 11.27,1.55056E+12,-0.557251,5.01503,6.9075317,0.2344513,-0.11752319,-0.015029907,10.62137712,76.1442411,4.51
19-02-2019 11.27,1.55056E+12,1.1809387,1.5961151,9.454971,-0.26835632,-0.17184448,0.07019043,10.62137712,76.1442411,4.51
19-02-2019 11.27,1.55056E+12,-0.86849976,8.493805,9.474121,0.28771973,-0.10473633,0.11706543,10.62137712,76.1442411,4.51
19-02-2019 11.27,1.55056E+12,0.7188568,5.4866943,8.265045,-0.108566284,-0.15586853,0.14689636,10.62137712,76.1442411,4.51
19-02-2019 11.27,1.55056E+12,1.3844452,1.5027313,14.585739,-0.2949829,-0.07383728,0.2363739,10.62137712,76.1442411,4.51
19-02-2019 11.27,1.55056E+12,0.68055725,10.035675,2.2819366,0.75323486,-0.031234741,0.23530579,10.62137712,76.1442411,4.51
19-02-2019 11.27,1.55056E+12,0.010177612,4.347046,7.6329803,0.022460938,-0.057861328,0.19482422,10.62137712,76.1442411,4.51
19-02-2019 11.27,1.55056E+12,-0.44711304,0.5019684,8.995285,-0.21401978,-0.024841309,0.2555542,10.62137712,76.1442411,4.51
19-02-2019 11.27,1.55056E+12,1.1163025,4.0334167,3.512558,0.20355225,-0.107925415,0.25021362,10.62137712,76.1442411,4.51
19-02-2019 11.27,1.55056E+12,0.055664062,4.2105865,12.644043,-0.263031,0.04121399,0.14901733,10.62137712,76.1442411,4.51
19-02-2019 11.27,1.55056E+12,-1.3712769,4.378174,-0.6916504,0.4347229,0.022033691,0.1937561,10.62137712,76.1442411,4.51
19-02-2019 11.27,1.55056E+12,0.383667,2.1204376,-0.92388916,-0.5911255,-0.02909851,0.24702454,10.62137712,76.1442411,4.51
19-02-2019 11.27,1.55056E+12,-1.7878723,2.738144,37.874146,-0.55810547,0.04866028,0.25128174,10.62137712,76.1442411,4.51
19-02-2019 11.27,1.55056E+12,2.284668,3.4994965,20.813065,0.437912,-0.063186646,-0.13433838,10.62137712,76.1442411,4.51
19-02-2019 11.27,1.55056E+12,2.4474792,9.291077,9.409485,0.05229187,0.053985596,-0.10557556,10.62137712,76.1442411,4.51
19-02-2019 11.27,1.55056E+12,1.9255371,6.2456512,-0.36125183,0.30581665,0.027359009,-0.0927887,10.62137712,76.1442411,4.51
19-02-2019 11.27,1.55056E+12,2.1625671,6.3150787,6.3975677,-0.033996582,0.15945435,-0.15458679,10.62137712,76.1442411,4.51
19-02-2019 11.27,1.55056E+12,0.6781616,6.015808,2.7942963,0.12365723,0.019897461,0.08830261,10.62137712,76.1442411,4.51
19-02-2019 11.27,1.55056E+12,2.9406738,-4.82753,12.292099,-0.11602783,0.06997681,0.06486511,10.62137712,76.1442411,4.51
19-02-2019 11.27,1.55056E+12,-0.45429993,-1.7797089,13.450897,0.45176697,0.09553528,0.042495728,10.62137712,76.1442411,4.51
19-02-2019 11.27,1.55056E+12,-1.1605835,22.66269,-20.982513,1.4957275,-0.01524353,-0.020355225,10.62137712,76.1442411,4.51
19-02-2019 11.27,1.55056E+12,2.8999786,-5.423691,3.5221405,-2.395691,0.008178711,0.25021362,10.62137712,76.1442411,4.51
19-02-2019 11.27,1.55056E+12,5.77063,5.8913116,0.10321045,-2.0793,0.07102966,0.080841064,10.62137712,76.1442411,4.51
19-02-2019 11.27,1.55056E+12,-3.7151947,11.350098,38.472702,-0.86917114,0.4023285,-0.08639526,10.62137712,76.1442411,4.51
19-02-2019 11.27,1.55056E+12,-3.123825,4.26326,40.471848,-0.7370758,0.01777649,0.1341095,10.62137712,76.1442411,4.51
19-02-2019 11.27,1.55056E+12,3.534439,13.313339,-11.159103,2.73143,-0.11538696,-0.22702026,10.62137712,76.1442411,4.51
19-02-2019 11.27,1.55056E+12,0.72125244,6.7197113,-11.451202,-0.15116882,0.10832214,-0.47735596,10.62137712,76.1442411,4.51
19-02-2019 11.27,1.55056E+12,2.7682953,6.544922,1.9084473,-0.21401978,0.010314941,0.09788513,10.62137712,76.1442411,4.51
19-02-2019 11.27,1.55056E+12,0.29508972,-2.174759,7.5779114,-0.42601013,0.075302124,0.21080017,10.62137712,76.1442411,4.51
19-02-2019 11.27,1.55056E+12,1.7579498,-4.3391113,14.118881,-0.0670166,-0.022705078,-0.005447388,10.62137712,76.1442411,4.51
19-02-2019 11.27,1.55056E+12,1.075592,6.334244,5.904373,0.7084961,0.059310913,-0.0927887,10.62137712,76.1442411,4.51
19-02-2019 11.27,1.55056E+12,4.9278717,26.845367,-20.656906,1.9878693,-0.119644165,0.055282593,10.62137712,76.1442411,4.51
19-02-2019 11.27,1.55056E+12,-2.5013428,-14.366028,36.82788,-0.41003418,0.3522644,0.110672,10.62137712,76.1442411,4.51
19-02-2019 11.27,1.55056E+12,2.0213013,-10.892044,29.87033,-0.5698242,-0.006729126,0.09895325,10.62137712,76.1442411,4.51
19-02-2019 11.27,1.55056E+12,0.95588684,12.401138,15.940857,1.5223541,-0.01524353,-0.17695618,10.62137712,76.1442411,4.51
19-02-2019 11.28,1.55056E+12,-2.0057373,10.011734,6.687271,0.391037,0.17224121,-0.12901306,10.62137712,76.1442411,4.51
19-02-2019 11.28,1.55056E+12,1.7794952,6.5616913,3.088791,-0.13626099,-0.2006073,-0.17907715,10.62137712,76.1442411,4.51
19-02-2019 11.28,1.55056E+12,1.9375153,9.133057,3.6490326,0.06187439,0.042266846,-0.07574463,10.62137712,76.1442411,4.51
19-02-2019 11.28,1.55056E+12,-0.7846985,2.082138,7.5779114,-0.7466583,-0.039749146,-0.114105225,10.62137712,76.1442411,4.51
19-02-2019 11.28,1.55056E+12,1.6190796,0.23860168,11.765381,-0.30563354,-0.11218262,-0.0927887,10.62137712,76.1442411,4.51
19-02-2019 11.28,1.55056E+12,0.036514282,7.1171417,-4.5151978,0.27386475,7.32E-04,-0.07469177,10.62137712,76.1442411,4.51
19-02-2019 11.28,1.55056E+12,0.35494995,2.6112518,11.281738,-0.7466583,-0.037628174,-0.06616211,10.62137712,76.1442411,4.51
19-02-2019 11.28,1.55056E+12,-0.028121948,2.6280212,11.080627,0.03843689,0.044403076,0.040359497,10.62137712,76.1442411,4.51
19-02-2019 11.28,1.55056E+12,0.8409729,4.457184,7.3672333,0.032043457,-0.12284851,-0.08106995,10.62137712,76.1442411,4.51
19-02-2019 11.28,1.55056E+12,0.56562805,2.8937683,14.621658,0.14816284,-0.02696228,-0.025680542,10.62137712,76.1442411,4.51
19-02-2019 11.28,1.55056E+12,1.2671356,9.767517,1.8342285,0.6520386,-0.09301758,0.020126343,10.62137712,76.1442411,4.51
19-02-2019 11.28,1.55056E+12,0.6566162,4.0286255,12.313644,-0.11921692,-0.003540039,0.014801025,10.62137712,76.1442411,4.51
19-02-2019 11.28,1.55056E+12,0.4411316,3.2792358,5.959442,-0.0435791,-0.08236694,0.01373291,10.62137712,76.1442411,4.51
19-02-2019 11.28,1.55056E+12,1.9853973,0.7030792,14.013535,-0.3088379,-0.04827881,0.055282593,10.62137712,76.1442411,4.51
19-02-2019 11.28,1.55056E+12,0.44592285,5.1921997,8.645737,0.2866516,-0.053604126,0.03503418,10.62137712,76.1442411,4.51
19-02-2019 11.28,1.55056E+12,1.3652954,5.5225983,16.69983,0.25468445,-0.056793213,0.03929138,10.62137712,76.1442411,4.51
19-02-2019 11.28,1.55056E+12,0.3214264,-5.227356,19.690186,-0.36209106,-0.03868103,0.07658386,10.62137712,76.1442411,4.51
19-02-2019 11.28,1.55056E+12,1.532898,11.3381195,2.061676,0.87467957,-0.06744385,0.07444763,10.62137712,76.1442411,4.51
19-02-2019 11.28,1.55056E+12,-0.77511597,7.323044,6.8835907,-0.12879944,0.003921509,0.049957275,10.62137712,76.1442411,4.51
19-02-2019 11.28,1.55056E+12,-0.9642639,1.9121399,-0.10029602,0.531662,-0.055725098,0.055282593,10.62137712,76.1442411,4.51
19-02-2019 11.28,1.55056E+12,2.7467499,0.8515167,24.823349,-0.64546204,-0.15905762,0.02758789,10.62137712,76.1442411,4.51
19-02-2019 11.28,1.55056E+12,0.53689575,5.4555664,-1.2614746,1.0334015,0.01777649,0.0872345,10.62137712,76.1442411,4.51
19-02-2019 11.28,1.55056E+12,2.3756561,0.9640503,14.51152,-0.8052521,-0.006729126,0.16712952,10.62137712,76.1442411,4.51
19-02-2019 11.28,1.55056E+12,2.387619,6.5856323,4.355316,0.1375122,0.08595276,0.24276733,10.62137712,76.1442411,4.51
19-02-2019 11.28,1.55056E+12,-1.0408783,-4.51149,18.943192,-0.9735565,0.17756653,0.13197327,10.62137712,76.1442411,4.51
19-02-2019 11.28,1.55056E+12,0.80744934,14.472122,-0.68447876,0.11407471,-0.1729126,0.12878418,10.62137712,76.1442411,4.51
19-02-2019 11.28,1.55056E+12,5.6197968,-2.4740295,24.84729,-1.1439972,-0.086624146,-0.17481995,10.62137712,76.1442411,4.51
19-02-2019 11.28,1.55056E+12,-1.9674377,8.311844,8.947403,0.36761475,0.39274597,-0.37295532,10.62137712,76.1442411,4.51
19-02-2019 11.28,1.55056E+12,1.6669617,9.2743225,11.650452,0.4613495,-0.08129883,-0.013961792,10.62137712,76.1442411,4.51
19-02-2019 11.28,1.55056E+12,0.52493286,-0.38389587,16.726166,0.7425842,-0.002471924,-0.13433838,10.62137712,76.1442411,4.51
19-02-2019 11.28,1.55056E+12,-0.07122803,13.447418,-7.9341125,2.1370087,0.007125855,-0.11836243,10.62137712,76.1442411,4.51
19-02-2019 11.28,1.55056E+12,2.9574432,-0.32403564,11.217102,0.20355225,-0.037628174,-0.13114929,10.62137712,76.1442411,4.51
19-02-2019 11.28,1.55056E+12,-0.8373718,8.35495,-2.0755005,1.1282043,0.110458374,0.01586914,10.62137712,76.1442411,4.51
19-02-2019 11.28,1.55056E+12,-0.8158264,8.048492,11.9856415,-0.10217285,-0.056793213,0.10748291,10.62137712,76.1442411,4.51
19-02-2019 11.28,1.55056E+12,3.9390564,13.006882,-4.934189,0.6435089,-0.021636963,0.082977295,10.62137712,76.1442411,4.51
19-02-2019 11.28,1.55056E+12,2.33255,7.279953,11.403854,-0.7221527,0.20951843,0.07337952,10.62137712,76.1442411,4.51
19-02-2019 11.28,1.55056E+12,-1.4766235,4.2105865,-3.9094696,-0.1181488,0.296875,0.019058228,10.62137712,76.1442411,4.51
19-02-2019 11.28,1.55056E+12,0.07720947,8.860123,10.132523,-1.0790253,0.15412903,-0.017166138,10.62137712,76.1442411,4.51
19-02-2019 11.28,1.55056E+12,0.043701172,4.904892,6.888382,-0.7264252,0.1051178,-0.15563965,10.62137712,76.1442411,4.51
19-02-2019 11.28,1.55056E+12,1.3078308,0.2816925,13.905792,-0.6859436,0.02949524,-0.22914124,10.62137712,76.1442411,4.51
19-02-2019 11.28,1.55056E+12,1.2838898,6.181015,6.3257446,0.08531189,0.16371155,-0.102386475,10.62137712,76.1442411,4.51
19-02-2019 11.28,1.55056E+12,-0.5452728,1.117279,13.898605,-0.0904541,0.08169556,-0.158844,10.62137712,76.1442411,4.51
19-02-2019 11.28,1.55056E+12,1.3557129,4.5864716,11.097397,0.11621094,-0.006729126,-0.2642975,10.62137712,76.1442411,4.51
19-02-2019 11.28,1.55056E+12,-0.636261,-1.8491364,10.699951,0.5348511,0.038009644,-0.20783997,10.62137712,76.1442411,4.51
19-02-2019 11.28,1.55056E+12,1.8393555,-1.1500397,18.605606,-0.0819397,-0.01737976,-0.1673584,10.62137712,76.1442411,4.51
19-02-2019 11.28,1.55056E+12,-0.38008118,7.0812225,2.5261536,1.1431274,0.04333496,-0.16842651,10.62137712,76.1442411,4.51
19-02-2019 11.28,1.55056E+12,-0.020950317,0.3894348,14.104507,-0.46437073,-0.01524353,-0.2184906,10.62137712,76.1442411,4.51
19-02-2019 11.28,1.55056E+12,0.48661804,2.944046,7.721573,0.1407013,-0.051467896,-0.15138245,10.62137712,76.1442411,4.51
19-02-2019 11.28,1.55056E+12,0.9008179,6.5353546,7.3935547,0.27812195,0.012451172,-0.088531494,10.62137712,76.1442411,4.51
19-02-2019 11.28,1.55056E+12,0.7523804,4.651108,12.469269,0.08317566,0.042266846,-0.13114929,10.62137712,76.1442411,4.51
19-02-2019 11.28,1.55056E+12,0.4698639,3.0517883,8.947403,0.13430786,0.011383057,-0.09811401,10.62137712,76.1442411,4.51
19-02-2019 11.28,1.55056E+12,-0.45429993,9.214462,7.7431183,0.15348816,-0.03656006,-0.060836792,10.62137712,76.1442411,4.51
19-02-2019 11.28,1.55056E+12,0.96307373,8.797867,6.9290924,0.14176941,-0.045074463,-0.11836243,10.62137712,76.1442411,4.51
19-02-2019 11.28,1.55056E+12,1.4251556,6.0565033,8.265045,-0.10643005,-0.020584106,-0.18547058,10.62137712,76.1442411,4.51
19-02-2019 11.28,1.55056E+12,0.6254883,7.402054,3.9483032,0.20994568,-0.007797241,-0.10343933,10.62137712,76.1442411,4.51
19-02-2019 11.28,1.55056E+12,1.0157471,7.639084,5.631424,-0.24917603,-0.01737976,-0.15563965,10.62137712,76.1442411,4.51
19-02-2019 11.28,1.55056E+12,0.28311157,7.442749,1.4631195,-0.049972534,-0.007797241,-0.17588806,10.62137712,76.1442411,4.51
19-02-2019 11.28,1.55056E+12,-0.059249878,3.2624817,8.267441,-0.5389252,-0.05253601,-0.13859558,10.62137712,76.1442411,4.51
19-02-2019 11.28,1.55056E+12,1.2264404,4.789978,7.264282,-0.10217285,-0.08769226,-0.15351868,10.62137712,76.1442411,4.51
19-02-2019 11.28,1.55056E+12,0.034118652,4.5625305,12.134079,-0.063827515,-0.035491943,-0.12582397,10.62137712,76.1442411,4.51
19-02-2019 11.28,1.55056E+12,0.9798279,4.133972,6.7088165,-0.054229736,-0.107925415,-0.057647705,10.62137712,76.1442411,4.51
19-02-2019 11.28,1.55056E+12,0.46507263,3.7844086,10.716721,-0.2534485,-0.06211853,-0.114105225,10.62137712,76.1442411,4.51
19-02-2019 11.28,1.55056E+12,0.12510681,5.8194885,9.88353,0.049087524,-0.09194946,-0.10450745,10.62137712,76.1442411,4.51
19-02-2019 11.28,1.55056E+12,0.67337036,3.078125,7.8436737,-0.042526245,-0.12922668,-0.08213806,10.62137712,76.1442411,4.51
19-02-2019 11.28,1.55056E+12,-0.11911011,6.350998,7.6856537,0.19610596,-0.12071228,-0.08213806,10.62137712,76.1442411,4.51
19-02-2019 11.28,1.55056E+12,0.29748535,4.789978,9.138931,0.004348755,-0.17398071,-0.065093994,10.62137712,76.1442411,4.51
19-02-2019 11.28,1.55056E+12,0.041305542,7.0213776,1.1877899,0.34310913,-0.11431885,-0.05230713,10.62137712,76.1442411,4.51
19-02-2019 11.28,1.55056E+12,-0.13586426,3.351059,9.761429,-0.3376007,-0.17503357,-0.040603638,10.62137712,76.1442411,4.51
19-02-2019 11.28,1.55056E+12,0.47705078,3.7485046,5.820572,0.025665283,-0.15480042,0.110672,10.62137712,76.1442411,4.51
19-02-2019 11.28,1.55056E+12,1.1139069,6.5904236,8.8229065,0.14390564,-0.110061646,0.1341095,10.62137712,76.1442411,4.51
19-02-2019 11.28,1.55056E+12,-1.0552368,5.936798,6.9027557,-0.013763428,-0.09301758,0.021194458,10.62137712,76.1442411,4.51
19-02-2019 11.28,1.55056E+12,1.4083862,5.627945,11.056686,-0.22041321,-0.17398071,0.071258545,10.62137712,76.1442411,4.51
19-02-2019 11.28,1.55056E+12,-0.10713196,7.3254395,6.5077057,0.14816284,-0.05039978,0.14794922,10.62137712,76.1442411,4.51
19-02-2019 11.28,1.55056E+12,1.0420837,5.445984,6.737549,-0.37808228,-0.086624146,0.14369202,10.62137712,76.1442411,4.51
19-02-2019 11.28,1.55056E+12,0.2855072,6.173828,4.7551575,-0.033996582,-0.04827881,0.22465515,10.62137712,76.1442411,4.51
19-02-2019 11.28,1.55056E+12,1.7459717,3.952011,10.156464,-0.3642273,-0.014190674,0.2086792,10.62137712,76.1442411,4.51
19-02-2019 11.28,1.55056E+12,-0.6482239,7.655838,2.6554413,0.19929504,0.040145874,0.1149292,10.62137712,76.1442411,4.51
19-02-2019 11.28,1.55056E+12,-0.0975647,1.8881989,24.519287,-0.3045807,0.013519287,0.13517761,10.62137712,76.1442411,4.51
19-02-2019 11.28,1.55056E+12,2.7515411,2.3359222,13.944092,0.3644104,-0.1026001,0.15541077,10.62137712,76.1442411,4.51
19-02-2019 11.28,1.55056E+12,3.4410706,7.94075,4.259552,0.27279663,0.1519928,0.08404541,10.62137712,76.1442411,4.51
19-02-2019 11.28,1.55056E+12,-2.6114655,4.806732,4.86528,-0.059570312,0.11897278,-0.043792725,10.62137712,76.1442411,4.51
19-02-2019 11.28,1.55056E+12,2.9646301,4.4715424,11.217102,-0.04890442,-0.010986328,-0.037399292,10.62137712,76.1442411,4.51
19-02-2019 11.28,1.55056E+12,0.18495178,3.6168213,17.746094,0.06826782,0.06465149,-0.07788086,10.62137712,76.1442411,4.51
19-02-2019 11.28,1.55056E+12,-0.49978638,3.3055725,11.16922,0.54977417,0.004989624,0.03503418,10.62137712,76.1442411,4.51
19-02-2019 11.28,1.55056E+12,2.296646,6.501831,7.211609,0.5913086,-0.09513855,-0.039535522,10.62137712,76.1442411,4.51
19-02-2019 11.28,1.55056E+12,2.528885,6.2504425,-1.1705017,0.68185425,0.13388062,-0.07362366,10.62137712,76.1442411,4.51
19-02-2019 11.28,1.55056E+12,1.1905212,-1.7294312,17.88974,-0.8244171,-0.033355713,-0.25897217,10.62137712,76.1442411,4.51
19-02-2019 11.28,1.55056E+12,1.6190796,3.0350342,7.812546,0.37080383,0.065704346,-0.004379273,10.62137712,76.1442411,4.51
19-02-2019 11.28,1.55056E+12,2.4091644,6.4443665,15.447662,0.002227783,0.056121826,0.08616638,10.62137712,76.1442411,4.51
19-02-2019 11.28,1.55056E+12,1.2336121,6.2312927,16.0103,0.8395233,0.07635498,-0.15777588,10.62137712,76.1442411,4.51
19-02-2019 11.28,1.55056E+12,-0.2531891,-0.99201965,10.788544,-0.035064697,0.124298096,-0.03526306,10.62137712,76.1442411,4.51
19-02-2019 11.28,1.55056E+12,-0.94750977,9.094757,-0.5168762,0.2536316,0.10832214,0.2129364,10.62137712,76.1442411,4.51
19-02-2019 11.28,1.55056E+12,0.7475891,-2.969635,16.469986,-1.0523834,-0.001403809,-0.20890808,10.62137712,76.1442411,4.51
19-02-2019 11.28,1.55056E+12,1.4323273,8.836182,-1.7570801,0.4197998,0.11151123,-0.10343933,10.62137712,76.1442411,4.51
19-02-2019 11.28,1.55056E+12,0.5009918,11.060394,4.4822083,-0.27368164,0.1051178,-0.17481995,10.62137712,76.1442411,4.51
19-02-2019 11.28,1.55056E+12,1.6382294,-1.2075043,15.8403015,-0.52827454,0.06890869,-0.1822815,10.62137712,76.1442411,4.51
19-02-2019 11.28,1.55056E+12,1.6885071,-0.2210846,15.51709,-0.20018005,0.09339905,-0.21955872,10.62137712,76.1442411,4.51
19-02-2019 11.28,1.55056E+12,0.94392395,5.7524414,9.847626,0.20994568,0.12004089,-0.24938965,10.62137712,76.1442411,4.51
19-02-2019 11.28,1.55056E+12,1.0348969,4.2057953,10.960922,-0.035064697,0.042266846,-0.26643372,10.62137712,76.1442411,4.51
19-02-2019 11.28,1.55056E+12,0.060455322,3.995102,6.785431,0.084243774,0.08062744,-0.2419281,10.62137712,76.1442411,4.51
19-02-2019 11.28,1.55056E+12,0.055664062,5.8003235,2.1574402,0.24191284,0.014572144,-0.24725342,10.62137712,76.1442411,4.51
19-02-2019 11.28,1.55056E+12,0.63027954,5.6925964,7.482147,-0.02760315,-3.36E-04,-0.2334137,10.62137712,76.1442411,4.51
19-02-2019 11.28,1.55056E+12,-0.9259491,4.9456024,7.6066437,-0.022277832,0.015640259,-0.30265808,10.62137712,76.1442411,4.51
19-02-2019 11.28,1.55056E+12,0.596756,3.4947205,8.408707,-0.17887878,-0.11325073,-0.27815247,10.62137712,76.1442411,4.51
19-02-2019 11.28,1.55056E+12,1.5137329,7.485855,8.437439,0.15988159,-0.07597351,-0.1822815,10.62137712,76.1442411,4.51
19-02-2019 11.28,1.55056E+12,0.34057617,1.8570862,11.99762,-0.038253784,-0.08129883,-0.17907715,10.62137712,76.1442411,4.51
19-02-2019 11.28,1.55056E+12,0.09158325,7.327835,5.954651,0.37187195,-0.06958008,-0.1439209,10.62137712,76.1442411,4.51
19-02-2019 11.28,1.55056E+12,-0.6769562,1.7277985,20.916016,-0.07980347,-0.12284851,-0.15991211,10.62137712,76.1442411,4.51
19-02-2019 11.28,1.55056E+12,-0.15501404,6.731674,5.995346,0.79904175,-0.098342896,-0.06402588,10.62137712,76.1442411,4.51
19-02-2019 11.28,1.55056E+12,-0.023345947,7.2344513,6.208435,0.037368774,-0.13243103,-0.03314209,10.62137712,76.1442411,4.51
19-02-2019 11.28,1.55056E+12,0.29748535,5.4388123,7.4079285,0.01499939,-0.1537323,-0.11515808,10.62137712,76.1442411,4.51
19-02-2019 11.28,1.55056E+12,0.6326752,5.762024,7.089493,-0.12561035,-0.14094543,-0.061904907,10.62137712,76.1442411,4.51
19-02-2019 11.28,1.55056E+12,0.46507263,6.79393,3.4503174,0.12260437,-0.15054321,-0.051254272,10.62137712,76.1442411,4.51
19-02-2019 11.28,1.55056E+12,0.20889282,3.6862488,9.160477,-0.19165039,-0.13456726,-0.05444336,10.62137712,76.1442411,4.51
19-02-2019 11.28,1.55056E+12,0.83618164,6.327057,7.4510193,0.041641235,-0.1452179,0.033966064,10.62137712,76.1442411,4.51
19-02-2019 11.28,1.55056E+12,-0.423172,5.1371307,8.245895,-0.016952515,-0.10580444,0.03929138,10.62137712,76.1442411,4.51
19-02-2019 11.28,1.55056E+12,-0.5883789,3.9448242,9.505249,-0.23852539,-0.13456726,-0.043792725,10.62137712,76.1442411,4.51
19-02-2019 11.28,1.55056E+12,0.7811127,4.91687,10.333649,-0.12135315,-0.18675232,-0.03314209,10.62137712,76.1442411,4.51
19-02-2019 11.28,1.55056E+12,0.92715454,6.003845,7.13739,-0.026535034,-0.12710571,0.04675293,10.62137712,76.1442411,4.51
19-02-2019 11.28,1.55056E+12,0.15382385,3.501892,8.959366,-0.1927185,-0.107925415,0.05633545,10.62137712,76.1442411,4.51
19-02-2019 11.28,1.55056E+12,0.5560608,2.730957,12.169998,-0.23640442,-0.11645508,0.07551575,10.62137712,76.1442411,4.51
19-02-2019 11.28,1.55056E+12,-0.19812012,5.651886,6.790222,0.10128784,-0.1302948,0.08616638,10.62137712,76.1442411,4.51
19-02-2019 11.28,1.55056E+12,1.1953125,4.9072876,5.782257,-0.061691284,-0.1452179,0.055282593,10.62137712,76.1442411,4.51
19-02-2019 11.28,1.55056E+12,-0.030517578,3.4324646,12.452515,-0.20336914,-0.088760376,0.01159668,10.62181306,76.14433092,5.5
19-02-2019 11.28,1.55056E+12,1.0731964,4.646332,12.083801,0.060806274,-0.11218262,0.110672,10.62181306,76.14433092,5.5
19-02-2019 11.28,1.55056E+12,1.0660248,5.1155853,7.4270782,0.12579346,-0.053604126,0.0872345,10.62181306,76.14433092,5.5
19-02-2019 11.28,1.55056E+12,-0.20768738,4.390152,7.3337097,0.08744812,-0.037628174,-0.018218994,10.62181306,76.14433092,5.5
19-02-2019 11.28,1.55056E+12,-0.07362366,6.30072,5.6338196,0.022460938,-0.09727478,0.04888916,10.62181306,76.14433092,5.5
19-02-2019 11.28,1.55056E+12,0.26875305,5.864975,3.555664,0.018203735,-0.065322876,0.040359497,10.62181306,76.14433092,5.5
19-02-2019 11.28,1.55056E+12,0.88645935,4.327896,10.846008,-0.18952942,-0.088760376,0.022247314,10.62181306,76.14433092,5.5
19-02-2019 11.28,1.55056E+12,0.61112976,4.6104126,10.237869,0.039505005,-0.056793213,0.021194458,10.62181306,76.14433092,5.5
19-02-2019 11.28,1.55056E+12,1.0085602,6.597595,7.7957916,0.16307068,-0.049331665,0.02545166,10.62181306,76.14433092,5.5
19-02-2019 11.28,1.55056E+12,0.95588684,5.027008,9.433426,-0.07766724,-0.047210693,0.019058228,10.62181306,76.14433092,5.5
19-02-2019 11.28,1.55056E+12,0.33338928,4.366211,8.988098,0.117263794,-0.01524353,0.038238525,10.62181306,76.14433092,5.5
19-02-2019 11.28,1.55056E+12,0.23522949,4.5984344,10.944168,-0.07234192,-0.025909424,0.040359497,10.62181306,76.14433092,5.5
19-02-2019 11.28,1.55056E+12,0.7356262,2.8267365,11.269775,0.084243774,-0.006729126,0.054214478,10.62181306,76.14433092,5.5
19-02-2019 11.28,1.55056E+12,0.8313904,5.23291,7.460602,0.17266846,-0.025909424,-0.040603638,10.62181306,76.14433092,5.5
19-02-2019 11.28,1.55056E+12,0.7811127,4.4667664,7.3720093,-0.0393219,-0.009918213,-0.007568359,10.62181306,76.14433092,5.5
19-02-2019 11.28,1.55056E+12,0.44352722,4.354233,13.197113,-0.19485474,-0.009918213,0.009475708,10.62181306,76.14433092,5.5
19-02-2019 11.28,1.55056E+12,0.63027954,4.9527893,8.181259,-0.056365967,-0.034423828,0.031845093,10.62181306,76.14433092,5.5
19-02-2019 11.28,1.55056E+12,-0.1598053,3.205017,9.732697,-0.13839722,-0.003540039,-0.09599304,10.62181306,76.14433092,5.5
19-02-2019 11.28,1.55056E+12,0.5560608,5.4388123,11.604965,0.05441284,-0.04295349,-0.057647705,10.62181306,76.14433092,5.5
19-02-2019 11.28,1.55056E+12,0.7140808,3.8682098,11.535538,0.074661255,-0.049331665,-0.040603638,10.62181306,76.14433092,5.5
19-02-2019 11.28,1.55056E+12,0.23283386,5.7045593,5.262726,0.36227417,-0.045074463,-0.040603638,10.62181306,76.14433092,5.5
19-02-2019 11.28,1.55056E+12,0.78829956,4.646332,6.5651703,0.07040405,-0.072769165,0.01159668,10.62181306,76.14433092,5.5
19-02-2019 11.28,1.55056E+12,1.2862854,7.200943,7.1517487,0.018203735,-0.016311646,0.009475708,10.62181306,76.14433092,5.5
19-02-2019 11.28,1.55056E+12,-0.27233887,7.284729,0.4192505,0.1918335,-0.035491943,-0.03100586,10.62181306,76.14433092,5.5
19-02-2019 11.28,1.55056E+12,1.5424652,3.8227234,7.8293,-0.35144043,-0.053604126,0.044631958,10.62181306,76.14433092,5.5
19-02-2019 11.28,1.55056E+12,0.6661835,5.3095245,7.9178925,-0.021209717,0.026290894,0.10960388,10.62181306,76.14433092,5.5
19-02-2019 11.28,1.55056E+12,-0.07839966,5.5513306,13.4844055,-0.058502197,0.012451172,0.0914917,10.62181306,76.14433092,5.5
19-02-2019 11.28,1.55056E+12,0.2639618,3.267273,11.794098,-0.11175537,-0.025909424,0.07337952,10.62181306,76.14433092,5.5
19-02-2019 11.28,1.55056E+12,1.046875,5.8051147,11.700729,0.08956909,-0.041885376,0.07872009,10.62181306,76.14433092,5.5
19-02-2019 11.28,1.55056E+12,0.2855072,7.5744324,8.293777,0.18118286,0.004989624,-0.00970459,10.62181306,76.14433092,5.5
19-02-2019 11.28,1.55056E+12,0.61590576,2.5250702,8.7438965,-0.01802063,0.003921509,0.00201416,10.62181306,76.14433092,5.5
19-02-2019 11.28,1.55056E+12,1.8632965,2.4484558,7.31456,0.011810303,-0.024841309,0.02545166,10.62181306,76.14433092,5.5
19-02-2019 11.28,1.55056E+12,-0.26515198,5.2712097,12.615311,0.034179688,0.065704346,-0.006500244,10.62181306,76.14433092,5.5
19-02-2019 11.28,1.55056E+12,0.70928955,7.885681,1.8078918,0.34843445,-0.010986328,-0.029937744,10.62181306,76.14433092,5.5
19-02-2019 11.28,1.55056E+12,0.9582825,2.7644806,8.025635,-0.09259033,-0.007797241,-0.037399292,10.62181306,76.14433092,5.5
19-02-2019 11.28,1.55056E+12,1.2862854,-1.2721405,14.715027,-0.50590515,-0.021636963,-0.09599304,10.62181306,76.14433092,5.5
19-02-2019 11.28,1.55056E+12,0.3501587,7.3014984,4.4702454,0.27812195,0.028427124,-0.02355957,10.62181306,76.14433092,5.5
19-02-2019 11.28,1.55056E+12,1.2599487,3.3726044,9.52919,-0.5091095,-0.0834198,-0.23127747,10.62181306,76.14433092,5.5
19-02-2019 11.28,1.55056E+12,1.319809,1.2034607,15.442871,-0.120285034,-0.034423828,-0.33354187,10.62181306,76.14433092,5.5
19-02-2019 11.28,1.55056E+12,1.2599487,4.8713837,11.614532,0.22805786,-0.15266418,-0.26004028,10.62181306,76.14433092,5.5
19-02-2019 11.28,1.55056E+12,0.6278839,4.2848053,14.149994,0.4304657,-0.098342896,-0.21104431,10.62181306,76.14433092,5.5
19-02-2019 11.28,1.55056E+12,-0.26515198,-0.44374084,20.463516,-0.1138916,-0.1494751,-0.11090088,10.62181306,76.14433092,5.5
19-02-2019 11.28,1.55056E+12,0.13227844,7.2392426,7.489334,0.64564514,-0.21018982,-0.013961792,10.62181306,76.14433092,5.5
19-02-2019 11.28,1.55056E+12,-0.91877747,7.193756,6.5412292,0.33564758,-0.13349915,0.0680542,10.62181306,76.14433092,5.5
19-02-2019 11.28,1.55056E+12,-1.0791779,2.5346375,8.837265,0.22912598,-0.29541016,0.05101013,10.62181306,76.14433092,5.5
19-02-2019 11.28,1.55056E+12,1.2862854,3.3175507,7.891556,0.2344513,-0.2549286,0.13517761,10.62181306,76.14433092,5.5
19-02-2019 11.28,1.55056E+12,0.6949158,5.6207733,3.8477478,0.4666748,-0.17077637,0.20761108,10.62181306,76.14433092,5.5
19-02-2019 11.28,1.55056E+12,-0.24121094,3.319931,5.7056427,-0.14372253,-0.16119385,0.25128174,10.62181306,76.14433092,5.5
19-02-2019 11.28,1.55056E+12,0.96307373,7.102783,12.861923,-0.1373291,-0.14201355,0.3343811,10.62181306,76.14433092,5.5
19-02-2019 11.28,1.55056E+12,-0.38008118,4.988693,7.7718506,-0.056365967,-0.06851196,0.4163971,10.62181306,76.14433092,5.5
19-02-2019 11.28,1.55056E+12,-0.11671448,8.182556,4.7192383,-0.3141632,-0.12496948,0.41000366,10.62181306,76.14433092,5.5
19-02-2019 11.28,1.55056E+12,1.2695312,2.6615295,14.841919,-0.6103058,-0.13882446,0.24276733,10.62181306,76.14433092,5.5
19-02-2019 11.28,1.55056E+12,1.2312164,4.074112,7.2570953,0.05229187,-0.046142578,0.2960205,10.62181306,76.14433092,5.5
19-02-2019 11.28,1.55056E+12,0.457901,2.5609741,13.379059,-0.2811432,-0.012054443,0.30773926,10.62181306,76.14433092,5.5
19-02-2019 11.28,1.55056E+12,0.3022766,0.87306213,12.505188,0.22059631,-0.04827881,0.2448883,10.62181306,76.14433092,5.5
19-02-2019 11.28,1.55056E+12,1.4706421,5.809906,5.7008667,0.44430542,-0.009918213,0.26620483,10.62181306,76.14433092,5.5
19-02-2019 11.28,1.55056E+12,-0.4734497,5.220932,10.977676,0.26000977,-0.001403809,0.21186829,10.62181306,76.14433092,5.5
19-02-2019 11.28,1.55056E+12,1.8249817,0.78208923,12.979233,-0.22468567,-0.01524353,0.26087952,10.62181306,76.14433092,5.5
19-02-2019 11.28,1.55056E+12,0.98461914,5.9463806,10.412643,0.086380005,0.053985596,0.14901733,10.62181306,76.14433092,5.5
19-02-2019 11.28,1.55056E+12,0.26635742,6.1786194,4.8868256,0.20675659,0.06037903,0.15966797,10.62181306,76.14433092,5.5
19-02-2019 11.28,1.55056E+12,-0.42556763,3.181076,13.553848,0.023529053,0.040145874,0.21080017,10.62181306,76.14433092,5.5
19-02-2019 11.28,1.55056E+12,0.9391327,3.2241669,11.899445,0.13858032,0.047607422,0.21932983,10.62181306,76.14433092,5.5
19-02-2019 11.28,1.55056E+12,1.5161285,4.560135,6.857254,0.2589569,0.06677246,0.20121765,10.62181306,76.14433092,5.5
19-02-2019 11.28,1.55056E+12,0.82899475,3.0589752,11.006409,-0.036132812,0.13815308,0.19482422,10.62181306,76.14433092,5.5
19-02-2019 11.28,1.55056E+12,1.3700867,6.5305634,6.074356,0.23124695,0.1477356,0.15008545,10.62181306,76.14433092,5.5
19-02-2019 11.28,1.55056E+12,0.6973114,3.2624817,7.9250793,-0.16716003,0.21058655,0.24169922,10.62181306,76.14433092,5.5
19-02-2019 11.28,1.55056E+12,0.61590576,6.465912,4.733597,0.01927185,0.1434784,0.22572327,10.62181306,76.14433092,5.5
19-02-2019 11.28,1.55056E+12,0.14665222,1.687088,9.323288,-0.44198608,0.22763062,0.14476013,10.62181306,76.14433092,5.5
19-02-2019 11.28,1.55056E+12,0.89842224,7.004608,8.38237,0.001159668,0.17224121,0.12025452,10.62181306,76.14433092,5.5
19-02-2019 11.28,1.55056E+12,0.53689575,3.1714935,15.232178,-0.44837952,0.2734375,0.10002136,10.62181306,76.14433092,5.5
19-02-2019 11.28,1.55056E+12,1.4347229,4.2512817,9.407089,0.02671814,0.1477356,-0.01928711,10.62181306,76.14433092,5.5
19-02-2019 11.28,1.55056E+12,1.0827789,5.9703217,13.151611,0.03843689,0.28089905,0.006271362,10.62181306,76.14433092,5.5
19-02-2019 11.28,1.55056E+12,0.23762512,4.023834,9.340042,0.15029907,0.20419312,-0.08106995,10.62181306,76.14433092,5.5
19-02-2019 11.28,1.55056E+12,1.8417358,4.2057953,7.3839874,0.17053223,0.16052246,-0.13647461,10.62181306,76.14433092,5.5
19-02-2019 11.28,1.55056E+12,1.1210938,4.370987,9.143723,0.041641235,0.21165466,-0.16416931,10.62181306,76.14433092,5.5
19-02-2019 11.28,1.55056E+12,1.1282654,5.0796814,4.7599335,0.26000977,0.15625,-0.22276306,10.62181306,76.14433092,5.5
19-02-2019 11.28,1.55056E+12,1.3652954,7.138687,0.7041626,-0.019088745,0.18928528,-0.19718933,10.62181306,76.14433092,5.5
19-02-2019 11.28,1.55056E+12,0.89842224,4.5433807,9.644119,-0.36209106,0.16903687,-0.2419281,10.62181306,76.14433092,5.5
19-02-2019 11.28,1.55056E+12,0.9798279,3.8993378,2.9882355,-0.20124817,0.1434784,-0.23660278,10.62181306,76.14433092,5.5
19-02-2019 11.28,1.55056E+12,1.822586,5.007843,8.693619,-0.28326416,0.11897278,-0.18867493,10.62181306,76.14433092,5.5
19-02-2019 11.28,1.55056E+12,0.12510681,4.1722717,11.686371,-0.11282349,0.19354248,-0.14179993,10.62181306,76.14433092,5.5
19-02-2019 11.28,1.55056E+12,0.6278839,5.2185364,8.758255,-0.02973938,0.087020874,-0.18440247,10.62181306,76.14433092,5.5
19-02-2019 11.28,1.55056E+12,0.99180603,6.667038,6.2371674,-0.2577057,0.100860596,-0.17695618,10.62181306,76.14433092,5.5
19-02-2019 11.28,1.55056E+12,0.24241638,6.33902,-9.231781,-0.025482178,0.098739624,-0.06402588,10.62181306,76.14433092,5.5
19-02-2019 11.28,1.55056E+12,2.1242523,-1.1715851,6.201248,-0.8936615,0.100860596,0.021194458,10.62181306,76.14433092,5.5
19-02-2019 11.28,1.55056E+12,0.6039429,6.667038,31.15123,-0.5037842,0.20100403,-0.19400024,10.62181306,76.14433092,5.5
19-02-2019 11.28,1.55056E+12,-5.4294434,-4.5378265,41.815002,0.17160034,0.067840576,-0.18547058,10.62181306,76.14433092,5.5
19-02-2019 11.28,1.55056E+12,3.7930145,-3.2952423,34.47917,0.65309143,-0.13243103,0.057403564,10.62181306,76.14433092,5.5
19-02-2019 11.28,1.55056E+12,4.712387,9.927933,4.4439087,1.4701538,0.34907532,0.157547,10.62181306,76.14433092,5.5
19-02-2019 11.28,1.55056E+12,-5.474945,8.845749,-7.2421875,1.0334015,0.48542786,-0.33035278,10.62181306,76.14433092,5.5
19-02-2019 11.28,1.55056E+12,0.39564514,1.7637024,8.478134,0.059753418,-0.08981323,-0.34632874,10.62181306,76.14433092,5.5
19-02-2019 11.28,1.55056E+12,2.6725311,-4.8227386,6.725586,0.44644165,0.023101807,-0.18014526,10.62181306,76.14433092,5.5
19-02-2019 11.28,1.55056E+12,4.0803223,8.072433,1.9228058,0.6903839,0.1477356,-0.41557312,10.62181306,76.14433092,5.5
19-02-2019 11.28,1.55056E+12,0.55366516,23.45996,-15.954697,2.0198364,-3.36E-04,-0.5892029,10.62181306,76.14433092,5.5
19-02-2019 11.28,1.55056E+12,0.86968994,2.8746185,24.636597,0.18971252,0.009246826,-0.59880066,10.62181306,76.14433092,5.5
19-02-2019 11.28,1.55056E+12,-1.4885864,-10.293488,34.12004,-0.8404083,-0.030166626,-0.32928467,10.62181306,76.14433092,5.5
19-02-2019 11.28,1.55056E+12,3.146576,14.836044,-4.670822,0.47520447,-0.23043823,-0.37295532,10.62181306,76.14433092,5.5
19-02-2019 11.28,1.55056E+12,3.1489716,8.6853485,-7.6875153,0.10661316,0.10192871,-0.31970215,10.62181306,76.14433092,5.5
19-02-2019 11.28,1.55056E+12,0.18255615,4.7923737,9.201187,-1.2984619,0.22763062,-0.21316528,10.62181306,76.14433092,5.5
19-02-2019 11.28,1.55056E+12,-1.2731171,-2.6631775,24.327744,-0.9543915,-0.12496948,-0.5061188,10.62181306,76.14433092,5.5
19-02-2019 11.28,1.55056E+12,1.1905212,10.768295,5.5691833,0.4613495,-0.09941101,-0.5178375,10.62181306,76.14433092,5.5
19-02-2019 11.28,1.55056E+12,1.2455902,6.303116,9.275406,-0.22680664,-0.13775635,-0.320755,10.62181306,76.14433092,5.5
19-02-2019 11.28,1.55056E+12,-0.60513306,5.4292297,-1.2375336,0.00328064,-0.13456726,-0.32928467,10.62181306,76.14433092,5.5
19-02-2019 11.28,1.55056E+12,-1.201294,10.868851,-4.338028,0.14602661,-0.24641418,-0.4656372,10.62181306,76.14433092,5.5
19-02-2019 11.28,1.55056E+12,-4.170105,3.21698,12.028732,-0.708313,-0.41152954,-0.38787842,10.62181306,76.14433092,5.5
19-02-2019 11.28,1.55056E+12,3.316574,-2.0358887,12.232239,-0.45903015,-0.5734558,-0.4368744,10.62181306,76.14433092,5.5
19-02-2019 11.28,1.55056E+12,0.7811127,4.4045105,9.232315,0.02885437,-0.3209839,-0.3388672,10.62181306,76.14433092,5.5
19-02-2019 11.28,1.55056E+12,1.7507629,10.679718,4.491791,0.4112854,-0.38916016,-0.07148743,10.62181306,76.14433092,5.5
19-02-2019 11.28,1.55056E+12,-0.51893616,5.6063995,22.345352,-0.10003662,-0.2986145,-0.027816772,10.62181306,76.14433092,5.5
19-02-2019 11.28,1.55056E+12,-0.3321991,-1.6049347,15.392593,-0.169281,-0.33377075,0.4089508,10.62181306,76.14433092,5.5
19-02-2019 11.28,1.55056E+12,0.15382385,11.639786,-4.20874,0.2578888,-0.40299988,0.48884583,10.62181306,76.14433092,5.5
19-02-2019 11.28,1.55056E+12,1.537674,-0.46051025,23.662155,-1.0406647,-0.3305664,0.6635437,10.62181306,76.14433092,5.5
19-02-2019 11.28,1.55056E+12,-3.629013,8.934341,-9.389786,0.2674713,-0.06851196,0.6496887,10.62181306,76.14433092,5.5
19-02-2019 11.28,1.55056E+12,6.2470703,5.7021637,-2.7985535,-0.3226776,-0.5201874,1.4646149,10.62181306,76.14433092,5.5
19-02-2019 11.28,1.55056E+12,-0.26275635,8.127502,0.62275696,-0.108566284,0.23295593,1.0939178,10.62181306,76.14433092,5.5
19-02-2019 11.28,1.55056E+12,-3.4614105,5.6614685,3.4550934,-0.3557129,0.027359009,0.024383545,10.62181306,76.14433092,5.5
19-02-2019 11.28,1.55056E+12,4.5759277,1.4955597,12.253784,-0.30563354,0.09979248,0.6624756,10.62181306,76.14433092,5.5
19-02-2019 11.28,1.55056E+12,1.0420837,7.157837,12.849945,0.07359314,0.1477356,0.2587433,10.62181306,76.14433092,5.5
19-02-2019 11.28,1.55056E+12,-1.4742279,-3.5610046,15.045425,0.65522766,0.14880371,0.15647888,10.62181306,76.14433092,5.5
19-02-2019 11.28,1.55056E+12,4.877594,2.5514069,16.283234,0.062942505,0.16477966,0.55807495,10.62181306,76.14433092,5.5
19-02-2019 11.28,1.55056E+12,1.9446869,9.281494,9.328079,1.171875,0.4076538,0.12771606,10.62181306,76.14433092,5.5
19-02-2019 11.28,1.55056E+12,-3.3105774,-7.1379395,20.04692,-1.13974,0.36824036,-0.13433838,10.62181306,76.14433092,5.5
19-02-2019 11.28,1.55056E+12,3.7666779,14.072296,-0.7084198,0.27919006,0.015640259,-0.18867493,10.62181306,76.14433092,5.5
19-02-2019 11.28,1.55056E+12,-0.502182,2.6687164,14.844315,-1.0278931,0.2691803,-0.4379425,10.62181306,76.14433092,5.5
19-02-2019 11.28,1.55056E+12,1.9207458,10.830551,-0.13619995,0.07572937,0.07423401,-0.5764313,10.62181306,76.14433092,5.5
19-02-2019 11.28,1.55056E+12,2.17453,2.3167725,16.558563,-0.8148346,0.12322998,-0.47521973,10.62181306,76.14433092,5.5
19-02-2019 11.28,1.55056E+12,1.50177,6.923218,5.3489075,0.24935913,0.1434784,-0.42941284,10.62181306,76.14433092,5.5
19-02-2019 11.28,1.55056E+12,1.1043243,0.96165466,12.842758,-0.4153595,0.10832214,-0.4421997,10.62181306,76.14433092,5.5
19-02-2019 11.28,1.55056E+12,1.3796692,7.023773,1.7959137,0.44537354,0.07316589,-0.57536316,10.62181306,76.14433092,5.5
19-02-2019 11.28,1.55056E+12,-0.044891357,2.5897064,11.442154,-0.37701416,0.08595276,-0.3580475,10.62181306,76.14433092,5.5
19-02-2019 11.28,1.55056E+12,0.20889282,5.8146973,14.324783,0.3324585,-0.031234741,-0.32928467,10.62181306,76.14433092,5.5
19-02-2019 11.28,1.55056E+12,1.2431946,7.1434784,11.841995,0.34736633,-0.04295349,-0.24085999,10.62181306,76.14433092,5.5
19-02-2019 11.28,1.55056E+12,0.8529358,-0.28811646,22.426758,0.2429657,0.07102966,-0.22381592,10.62181306,76.14433092,5.5
19-02-2019 11.28,1.55056E+12,1.7076721,10.935898,-1.5439911,1.4051819,-0.030166626,-0.114105225,10.62181306,76.14433092,5.5
19-02-2019 11.28,1.55056E+12,-0.90200806,5.1945953,13.501175,0.40382385,0.06037903,-0.34951782,10.62181306,76.14433092,5.5
19-02-2019 11.28,1.55056E+12,0.8529358,8.3932495,3.3689117,0.49543762,-0.065322876,-0.09811401,10.62181306,76.14433092,5.5
19-02-2019 11.28,1.55056E+12,1.9614563,1.1076965,14.324783,-0.44837952,-0.05039978,-0.14924622,10.62181306,76.14433092,5.5
19-02-2019 11.28,1.55056E+12,1.585556,12.195236,-9.724976,1.0547028,-0.02909851,-0.14819336,10.62181306,76.14433092,5.5
19-02-2019 11.28,1.55056E+12,0.09397888,3.4492188,26.702805,-0.7424011,0.12536621,-0.114105225,10.62181306,76.14433092,5.5
19-02-2019 11.28,1.55056E+12,1.0157471,5.675827,11.928177,0.2578888,-0.045074463,-0.022491455,10.62181306,76.14433092,5.5
19-02-2019 11.28,1.55056E+12,5.4210815,2.6615295,10.922623,-0.12986755,0.07102966,-0.002243042,10.62181306,76.14433092,5.5
19-02-2019 11.28,1.55056E+12,-2.221222,5.31192,28.71872,-0.33972168,0.23402405,-0.18972778,10.62181306,76.14433092,5.5
19-02-2019 11.28,1.55056E+12,-0.61231995,6.805893,9.46933,0.31114197,-0.023773193,-0.34632874,10.62181306,76.14433092,5.5
19-02-2019 11.28,1.55056E+12,0.2232666,10.308609,7.1349945,0.44111633,-0.023773193,-0.42729187,10.62181306,76.14433092,5.5
19-02-2019 11.28,1.55056E+12,0.27593994,2.4508362,12.98642,-0.47502136,-0.039749146,-0.4336853,10.62181306,76.14433092,5.5
19-02-2019 11.28,1.55056E+12,-0.052078247,7.4690857,3.780716,0.7148895,-0.0791626,-0.36763,10.62181306,76.14433092,5.5
19-02-2019 11.28,1.55056E+12,0.61351013,11.445862,-0.18408203,0.0821228,-0.14308167,-0.42089844,10.62181306,76.14433092,5.5
19-02-2019 11.28,1.55056E+12,-3.5787354,12.719574,-14.218903,0.54338074,-0.11538696,-0.5668335,10.62181306,76.14433092,5.5
19-02-2019 11.28,1.55056E+12,3.5631714,-1.7749176,18.14592,-1.3421478,-0.42218018,-0.47628784,10.62181306,76.14433092,5.5
19-02-2019 11.28,1.55056E+12,2.8784332,12.001312,7.697632,1.0131531,-0.21232605,-0.2696228,10.62181306,76.14433092,5.5
19-02-2019 11.28,1.55056E+12,-0.030517578,4.924057,3.1893463,-0.18525696,-0.031234741,-0.15031433,10.62181306,76.14433092,5.5
19-02-2019 11.28,1.55056E+12,-2.1709442,4.0453796,-4.3835144,-0.2662201,-0.26664734,-0.22488403,10.62181306,76.14433092,5.5
19-02-2019 11.28,1.55056E+12,-0.2579651,6.2624054,11.68158,-0.8137665,-0.38383484,-0.07574463,10.62181306,76.14433092,5.5
19-02-2019 11.28,1.55056E+12,-4.0934906,8.321426,7.563553,-0.108566284,-0.2197876,-0.10450745,10.62181306,76.14433092,5.5
19-02-2019 11.28,1.55056E+12,1.2599487,5.4555664,14.305618,-0.7956543,-0.50953674,0.05847168,10.62181306,76.14433092,5.5
19-02-2019 11.28,1.55056E+12,-0.9738312,0.9472809,16.182678,-0.21508789,-0.3497467,0.04675293,10.62181306,76.14433092,5.5
19-02-2019 11.28,1.55056E+12,-0.08798218,9.154602,0.18940735,0.04057312,-0.37957764,0.055282593,10.62181306,76.14433092,5.5
19-02-2019 11.28,1.55056E+12,-0.65541077,10.737167,10.994446,-0.22680664,-0.25387573,0.44303894,10.62181306,76.14433092,5.5
19-02-2019 11.28,1.55056E+12,-0.5859833,-2.8331604,12.885864,0.6658783,-0.3348236,0.4355774,10.62181306,76.14433092,5.5
19-02-2019 11.28,1.55056E+12,1.6621704,-4.899353,21.481049,-0.07980347,-0.29328918,0.6113434,10.62181306,76.14433092,5.5
19-02-2019 11.28,1.55056E+12,-1.4622498,11.546417,0.6275482,1.6917267,-0.008865356,0.5879059,10.62181306,76.14433092,5.5
19-02-2019 11.28,1.55056E+12,-0.2531891,7.0525055,8.652908,-0.22894287,-0.19314575,0.44197083,10.62181306,76.14433092,5.5
19-02-2019 11.28,1.55056E+12,0.7906952,-2.325592,14.492371,-0.010559082,-0.053604126,0.4920349,10.62181306,76.14433092,5.5
19-02-2019 11.28,1.55056E+12,2.2942505,7.0525055,7.453415,0.660553,0.019897461,0.57832336,10.62181306,76.14433092,5.5
19-02-2019 11.28,1.55056E+12,-1.5077515,6.57605,14.11409,0.39317322,0.10725403,0.5207977,10.62181306,76.14433092,5.5
19-02-2019 11.28,1.55056E+12,3.0388489,5.477112,5.341736,0.2813263,0.091278076,0.5793915,10.62205853,76.14444353,5.4
19-02-2019 11.28,1.55056E+12,1.0157471,8.43634,8.463776,-0.6678314,0.24681091,0.42066956,10.62205853,76.14444353,5.4
19-02-2019 11.28,1.55056E+12,0.005386353,7.0764465,11.439758,-0.14479065,0.26171875,0.10853577,10.62205853,76.14444353,5.4
19-02-2019 11.28,1.55056E+12,2.0644073,6.334244,6.3688507,-0.13839722,0.30433655,0.06593323,10.62205853,76.14444353,5.4
19-02-2019 11.28,1.55056E+12,2.7371674,5.481903,9.505249,-0.10110474,0.3235016,-0.13327026,10.62205853,76.14444353,5.4
19-02-2019 11.28,1.55056E+12,0.043701172,7.2871246,8.162094,0.15455627,0.36717224,-0.34739685,10.62205853,76.14444353,5.4
19-02-2019 11.28,1.55056E+12,1.8034363,7.3302307,-3.105011,0.26428223,0.1796875,-0.55085754,10.62205853,76.14444353,5.4
19-02-2019 11.28,1.55056E+12,2.004547,5.572876,9.512436,-0.4302826,0.14241028,-0.72875977,10.62205853,76.14444353,5.4
19-02-2019 11.28,1.55056E+12,1.2264404,6.652664,2.8374023,0.08744812,0.07209778,-0.70106506,10.62205853,76.14444353,5.4
19-02-2019 11.28,1.55056E+12,1.0109558,5.287979,9.754242,-0.4111023,0.04121399,-0.80651855,10.62205853,76.14444353,5.4
19-02-2019 11.28,1.55056E+12,1.02771,6.3294525,9.730301,-0.05529785,-0.09513855,-0.717041,10.62205853,76.14444353,5.4
19-02-2019 11.28,1.55056E+12,-0.11911011,3.825119,9.39032,-0.19804382,-0.15905762,-0.68614197,10.62205853,76.14444353,5.4
19-02-2019 11.28,1.55056E+12,0.96546936,4.687027,12.713486,-0.08087158,-0.24534607,-0.5338135,10.62205853,76.14444353,5.4
19-02-2019 11.28,1.55056E+12,-1.3138123,3.8873596,11.363144,0.051223755,-0.21765137,-0.4421997,10.62205853,76.14444353,5.4
19-02-2019 11.28,1.55056E+12,0.12510681,0.81799316,18.615189,-0.1607666,-0.3859558,-0.24725342,10.62205853,76.14444353,5.4
19-02-2019 11.28,1.55056E+12,-0.8852539,6.2360687,3.555664,0.82566833,-0.3209839,-0.19932556,10.62205853,76.14444353,5.4
19-02-2019 11.28,1.55056E+12,-0.7272339,3.164322,9.809311,-0.0435791,-0.4520111,-0.04486084,10.62205853,76.14444353,5.4
19-02-2019 11.28,1.55056E+12,0.9582825,6.853775,7.192444,0.46774292,-0.38490295,0.07658386,10.62205853,76.14444353,5.4
19-02-2019 11.28,1.55056E+12,-1.6920929,5.7955475,2.128708,0.12898254,-0.34761047,0.25341797,10.62205853,76.14444353,5.4
19-02-2019 11.28,1.55056E+12,-0.22206116,4.5457764,7.920288,-0.3141632,-0.39448547,0.39830017,10.62205853,76.14444353,5.4
19-02-2019 11.28,1.55056E+12,-0.46148682,8.19693,-4.8072968,0.2578888,-0.30819702,0.4920349,10.62205853,76.14444353,5.4
19-02-2019 11.28,1.55056E+12,-0.720047,3.7077942,-1.5607452,-0.5826111,-0.30500793,0.57192993,10.62205853,76.14444353,5.4
19-02-2019 11.28,1.55056E+12,1.1689758,0.70547485,29.104187,-1.0992584,-0.21339417,0.62731934,10.62205853,76.14444353,5.4
19-02-2019 11.28,1.55056E+12,-2.182907,3.5378113,10.546722,-0.023345947,-0.2325592,0.67100525,10.62205853,76.14444353,5.4
19-02-2019 11.28,1.55056E+12,3.024475,6.7651978,7.532425,0.13218689,-0.1579895,0.5836487,10.62205853,76.14444353,5.4
19-02-2019 11.28,1.55056E+12,-0.5381012,4.4452057,6.804596,0.09916687,-0.16758728,0.28431702,10.62205853,76.14444353,5.4
19-02-2019 11.28,1.55056E+12,1.7459717,4.153122,-3.0690918,0.16307068,-0.15693665,0.4366455,10.62205853,76.14444353,5.4
19-02-2019 11.28,1.55056E+12,1.7028809,3.0733337,9.888321,-0.2896576,-0.045074463,0.34609985,10.62205853,76.14444353,5.4
19-02-2019 11.28,1.55056E+12,-0.78230286,0.8491211,10.5946045,-0.11282349,-0.010986328,0.333313,10.62205853,76.14444353,5.4
19-02-2019 11.28,1.55056E+12,-0.7775116,1.1124878,4.173355,0.22273254,-0.15693665,0.3386383,10.62205853,76.14444353,5.4
19-02-2019 11.28,1.55056E+12,1.7938538,10.6701355,4.1230774,0.38252258,-0.044006348,0.2821808,10.62205853,76.14444353,5.4
19-02-2019 11.28,1.55056E+12,-1.1749573,-7.1259613,17.087692,0.46028137,-0.08023071,0.26513672,10.62205853,76.14444353,5.4
19-02-2019 11.28,1.55056E+12,3.1872864,-7.188217,27.31572,-0.57940674,-0.074905396,0.5101471,10.62205853,76.14444353,5.4
19-02-2019 11.28,1.55056E+12,1.0899658,5.66626,18.390137,1.7844086,0.296875,0.2587433,10.62205853,76.14444353,5.4
19-02-2019 11.28,1.55056E+12,-0.49978638,-0.103775024,22.429153,-0.15863037,0.06890869,-1.22E-04,10.62205853,76.14444353,5.4
19-02-2019 11.28,1.55056E+12,3.565567,6.877716,12.936142,0.50183105,0.08274841,0.2640686,10.62205853,76.14444353,5.4
19-02-2019 11.28,1.55056E+12,0.44831848,9.999756,-0.10267639,0.7457733,0.21484375,-0.050186157,10.62205853,76.14444353,5.4
19-02-2019 11.28,1.55056E+12,-0.5716095,3.0015106,12.107742,-0.169281,0.067840576,-0.14073181,10.62205853,76.14444353,5.4
19-02-2019 11.28,1.55056E+12,1.8848419,6.307907,1.235672,0.5817261,-0.030166626,0.030776978,10.62205853,76.14444353,5.4
19-02-2019 11.28,1.55056E+12,1.6621704,8.77153,5.3848267,0.18971252,-0.034423828,0.012664795,10.62205853,76.14444353,5.4
19-02-2019 11.28,1.55056E+12,0.3429718,11.57515,6.90036,0.391037,0.02949524,-0.048049927,10.62205853,76.14444353,5.4
19-02-2019 11.28,1.55056E+12,2.1098938,3.164322,-1.6230011,0.31967163,-0.006729126,0.03503418,10.62205853,76.14444353,5.4
19-02-2019 11.28,1.55056E+12,1.0731964,2.6351929,4.0488586,-0.3407898,0.12750244,0.1149292,10.62205853,76.14444353,5.4
19-02-2019 11.28,1.55056E+12,-0.044891357,1.663147,20.20494,-0.036132812,0.1477356,0.13943481,10.62205853,76.14444353,5.4
19-02-2019 11.28,1.55056E+12,1.5400696,2.1802979,10.963318,0.022460938,0.08381653,0.2171936,10.62205853,76.14444353,5.4
19-02-2019 11.28,1.55056E+12,0.88645935,3.3702087,21.153046,0.18864441,0.12322998,0.061676025,10.62205853,76.14444353,5.4
19-02-2019 11.28,1.55056E+12,-1.1246796,0.5378723,12.521942,0.088516235,0.1477356,0.02758789,10.62205853,76.14444353,5.4
19-02-2019 11.28,1.55056E+12,1.9590607,10.495361,3.4838257,0.6296692,0.04333496,0.005203247,10.62205853,76.14444353,5.4
19-02-2019 11.28,1.55056E+12,0.6781616,9.092361,-0.4450531,0.06187439,0.13282776,-0.11090088,10.62205853,76.14444353,5.4
19-02-2019 11.28,1.55056E+12,2.7132263,-0.25460815,25.204025,-0.67529297,0.112579346,0.00201416,10.62205853,76.14444353,5.4
19-02-2019 11.28,1.55056E+12,-1.5292969,7.667801,3.9650726,0.95669556,0.203125,0.08616638,10.62205853,76.14444353,5.4
19-02-2019 11.28,1.55056E+12,0.61590576,8.077209,-6.5813904,0.3452301,-0.1026001,-0.016098022,10.62205853,76.14444353,5.4
19-02-2019 11.28,1.55056E+12,1.2264404,-3.297638,19.264008,-1.3400116,0.02949524,-0.03100586,10.62205853,76.14444353,5.4
19-02-2019 11.28,1.55056E+12,1.0013733,7.378113,-3.5455475,0.54763794,0.05293274,-0.041656494,10.62205853,76.14444353,5.4
19-02-2019 11.28,1.55056E+12,-0.8277893,1.9672089,8.202805,-0.9139099,0.018844604,-0.05870056,10.62205853,76.14444353,5.4
19-02-2019 11.28,1.55056E+12,-0.74160767,0.5450592,27.942993,0.35801697,0.038009644,-0.01928711,10.62205853,76.14444353,5.4
19-02-2019 11.28,1.55056E+12,3.086731,0.20028687,22.500977,0.27919006,-0.0834198,0.15966797,10.62205853,76.14444353,5.4
19-02-2019 11.28,1.55056E+12,2.4953613,11.309387,10.65686,0.72872925,0.19140625,0.14476013,10.62205853,76.14444353,5.4
19-02-2019 11.28,1.55056E+12,-1.4383087,-0.50839233,7.0918884,-0.108566284,0.08062744,0.06486511,10.62205853,76.14444353,5.4
19-02-2019 11.28,1.55056E+12,0.5129547,8.802658,-10.357056,0.013946533,-0.05999756,0.069122314,10.62205853,76.14444353,5.4
19-02-2019 11.28,1.55056E+12,1.1210938,10.416351,13.577789,-0.6433258,0.023101807,0.1852417,10.62205853,76.14444353,5.4
19-02-2019 11.28,1.55056E+12,-0.131073,-2.7900696,8.176468,0.5359192,-0.002471924,0.08937073,10.62205853,76.14444353,5.4
19-02-2019 11.28,1.55056E+12,3.273468,-5.2680664,23.475418,-0.42921448,-0.02909851,0.27471924,10.62205853,76.14444353,5.4
19-02-2019 11.28,1.55056E+12,1.3533325,13.768234,0.4192505,1.9942627,0.18182373,0.18417358,10.62205853,76.14444353,5.4
19-02-2019 11.28,1.55056E+12,-0.88046265,7.528946,13.606522,-0.81269836,0.1796875,-0.006500244,10.62205853,76.14444353,5.4
19-02-2019 11.28,1.55056E+12,3.747528,-0.50839233,21.368515,-0.38552856,0.13708496,0.07765198,10.62205853,76.14444353,5.4
19-02-2019 11.28,1.55056E+12,1.3700867,5.9966583,11.736649,0.61795044,0.25,0.053146362,10.62205853,76.14444353,5.4
19-02-2019 11.28,1.55056E+12,-0.025741577,12.949417,-9.238953,-0.004165649,0.21058655,0.042495728,10.62205853,76.14444353,5.4
19-02-2019 11.28,1.55056E+12,1.1498108,4.5146484,-3.286972,-0.60816956,0.1711731,0.026519775,10.62205853,76.14444353,5.4
19-02-2019 11.28,1.55056E+12,1.4921875,5.4316254,5.6577606,-1.2760925,0.14666748,0.020126343,10.62205853,76.14444353,5.4
19-02-2019 11.28,1.55056E+12,1.6358337,4.505066,13.465256,-0.33013916,0.203125,-0.018218994,10.62205853,76.14444353,5.4
19-02-2019 11.28,1.55056E+12,2.0404663,5.592041,1.4272156,-0.011627197,0.28302002,-0.048049927,10.62205853,76.14444353,5.4
19-02-2019 11.28,1.55056E+12,1.9063873,3.102066,15.330338,-0.33013916,0.1669159,-0.07148743,10.62205853,76.14444353,5.4
19-02-2019 11.28,1.55056E+12,1.3078308,9.020538,5.619461,0.45495605,0.27023315,-0.10877991,10.62205853,76.14444353,5.4
19-02-2019 11.28,1.55056E+12,-0.17178345,2.323944,13.261749,-0.17141724,0.19779968,-0.25364685,10.62205853,76.14444353,5.4
19-02-2019 11.28,1.55056E+12,1.7675171,3.8035736,1.5852356,-0.030807495,0.15838623,-0.25578308,10.62205853,76.14444353,5.4
19-02-2019 11.28,1.55056E+12,2.066803,13.701202,-9.64119,0.8618927,0.03694153,-0.37295532,10.62205853,76.14444353,5.4
19-02-2019 11.28,1.55056E+12,0.754776,2.6399841,23.60231,0.002227783,0.17649841,-0.46244812,10.62205853,76.14444353,5.4
19-02-2019 11.28,1.55056E+12,3.0388489,4.2536774,3.2587738,0.32925415,0.001800537,-0.15563965,10.62205853,76.14444353,5.4
19-02-2019 11.28,1.55056E+12,1.3365631,0.73898315,27.380356,-0.50483704,0.13069153,-0.19718933,10.62205853,76.14444353,5.4
19-02-2019 11.28,1.55056E+12,1.0899658,12.980545,-5.4633026,1.6725616,0.04121399,-0.3079834,10.62205853,76.14444353,5.4
19-02-2019 11.28,1.55056E+12,-1.0720062,4.196213,5.6529846,-1.1141815,-0.072769165,-0.27708435,10.62205853,76.14444353,5.4
19-02-2019 11.28,1.55056E+12,3.4362793,6.5305634,3.4120026,0.19715881,-0.056793213,-0.09492493,10.62205853,76.14444353,5.4
19-02-2019 11.28,1.55056E+12,-0.8349762,1.2058563,15.593704,-1.2473297,0.08595276,-0.08746338,10.62205853,76.14444353,5.4
19-02-2019 11.28,1.55056E+12,-0.39204407,7.3374023,-10.517456,0.85124207,-0.12071228,-0.22914124,10.62205853,76.14444353,5.4
19-02-2019 11.28,1.55056E+12,0.86491394,9.616684,10.333649,-0.3834076,-0.11538696,-0.205719,10.62205853,76.14444353,5.4
19-02-2019 11.28,1.55056E+12,-0.016159058,-1.2960815,13.766922,-0.5890045,-0.0791626,-0.088531494,10.62205853,76.14444353,5.4
19-02-2019 11.28,1.55056E+12,-0.25079346,8.342972,-0.53842163,0.44004822,-0.12817383,-0.013961792,10.62205853,76.14444353,5.4
19-02-2019 11.28,1.55056E+12,0.3310089,4.2656403,6.6298065,-0.4707489,-0.1537323,-0.10557556,10.62205853,76.14444353,5.4
19-02-2019 11.28,1.55056E+12,0.37409973,-4.7102203,14.832352,0.7138214,-0.13349915,-0.17268372,10.62205853,76.14444353,5.4
19-02-2019 11.28,1.55056E+12,2.3301544,7.5457,25.61583,0.39530945,-0.2240448,0.021194458,10.62205853,76.14444353,5.4
19-02-2019 11.28,1.55056E+12,0.44352722,-4.839508,14.025497,1.4690857,-0.010986328,0.06272888,10.62205853,76.14444353,5.4
19-02-2019 11.28,1.55056E+12,1.5999298,-5.47876,31.148834,-0.49525452,-0.16545105,0.1383667,10.62205853,76.14444353,5.4
19-02-2019 11.28,1.55056E+12,1.1593933,12.14975,-1.6780701,2.4544678,0.024169922,0.071258545,10.62205853,76.14444353,5.4
19-02-2019 11.28,1.55056E+12,-1.3592987,-0.965683,14.59053,-1.4252319,-0.063186646,0.061676025,10.62205853,76.14444353,5.4
19-02-2019 11.28,1.55056E+12,1.7483673,1.4333038,6.598694,0.47520447,-0.24641418,0.010543823,10.62205853,76.14444353,5.4
19-02-2019 11.28,1.55056E+12,1.2264404,-1.7174683,23.312607,-0.5421295,-0.10580444,0.07658386,10.62205853,76.14444353,5.4
19-02-2019 11.28,1.55056E+12,-0.91638184,9.267136,11.083023,0.5625458,-0.16438293,-0.001174927,10.62205853,76.14444353,5.4
19-02-2019 11.28,1.55056E+12,2.0739746,15.760208,-6.7465973,0.90982056,-0.28689575,0.07977295,10.62205853,76.14444353,5.4
19-02-2019 11.28,1.55056E+12,2.1410217,-7.2648315,29.21193,-1.3698425,-0.119644165,0.12878418,10.62205853,76.14444353,5.4
19-02-2019 11.28,1.55056E+12,-0.18374634,7.4235992,1.1877899,1.5287476,-0.061050415,0.2640686,10.62205853,76.14444353,5.4
19-02-2019 11.28,1.55056E+12,-0.008972168,5.505844,7.697632,-0.1884613,-0.12071228,0.1852417,10.62205853,76.14444353,5.4
19-02-2019 11.28,1.55056E+12,-1.1749573,1.6248474,5.1477966,0.095962524,-0.14308167,0.13304138,10.62205853,76.14444353,5.4
19-02-2019 11.28,1.55056E+12,0.60154724,2.46521,4.1039276,0.12579346,-0.21018982,0.27471924,10.62205853,76.14444353,5.4
19-02-2019 11.28,1.55056E+12,1.9542694,10.622253,2.2053223,0.38571167,-0.13456726,0.2630005,10.62205853,76.14444353,5.4
19-02-2019 11.28,1.55056E+12,-0.07839966,0.12606812,-0.45942688,0.47306824,-0.058929443,0.20228577,10.62205853,76.14444353,5.4
19-02-2019 11.28,1.55056E+12,0.97743225,-6.19223,27.51204,-1.3197784,-0.072769165,0.27259827,10.62205853,76.14444353,5.4
19-02-2019 11.28,1.55056E+12,1.2455902,5.544159,13.06543,0.71061707,-0.006729126,0.33117676,10.62205853,76.14444353,5.4
19-02-2019 11.28,1.55056E+12,1.9853973,4.9336243,14.62645,-0.1330719,-0.02909851,0.35461426,10.62205853,76.14444353,5.4
19-02-2019 11.28,1.55056E+12,1.2216492,5.019821,9.656082,-0.10749817,0.089141846,0.157547,10.62205853,76.14444353,5.4
19-02-2019 11.28,1.55056E+12,-0.641037,4.9934845,4.7479706,0.117263794,0.07316589,0.11280823,10.62205853,76.14444353,5.4
19-02-2019 11.28,1.55056E+12,-1.9506683,7.102783,3.9937897,-0.24917603,-0.08129883,0.17138672,10.62205853,76.14444353,5.4
19-02-2019 11.28,1.55056E+12,1.02771,4.9312286,4.7240295,-0.1181488,-0.07809448,0.07232666,10.62205853,76.14444353,5.4
19-02-2019 11.28,1.55056E+12,0.28790283,-2.095749,10.075073,-0.3738098,-0.005661011,0.18843079,10.62205853,76.14444353,5.4
19-02-2019 11.28,1.55056E+12,1.051651,-0.21629333,6.876419,0.39424133,-0.061050415,0.16073608,10.62205853,76.14444353,5.4
19-02-2019 11.28,1.55056E+12,-1.1845245,15.817673,-3.7370758,1.2592316,-0.07064819,0.12239075,10.62205853,76.14444353,5.4
19-02-2019 11.28,1.55056E+12,0.54408264,-2.6895142,16.594482,-1.5828857,0.042266846,0.35461426,10.62205853,76.14444353,5.4
19-02-2019 11.28,1.55056E+12,1.7316132,2.2186127,13.884247,-0.3045807,0.025222778,0.3386383,10.62205853,76.14444353,5.4
19-02-2019 11.28,1.55056E+12,0.09877014,1.4572449,20.760391,-0.06489563,0.10618591,0.15647888,10.62205853,76.14444353,5.4
19-02-2019 11.28,1.55056E+12,1.1378479,9.315018,0.69218445,0.92474365,0.14027405,0.021194458,10.62205853,76.14444353,5.4
19-02-2019 11.28,1.55056E+12,2.193695,2.0127106,9.972122,-0.34292603,0.04333496,0.09895325,10.62205853,76.14444353,5.4
19-02-2019 11.28,1.55056E+12,1.4490967,9.877655,-0.80178833,0.3143463,0.1477356,0.15647888,10.62205853,76.14444353,5.4
19-02-2019 11.28,1.55056E+12,0.11073303,2.9703827,9.03598,-0.6806183,0.1477356,0.045684814,10.62205853,76.14444353,5.4
19-02-2019 11.28,1.55056E+12,1.0971527,5.6734314,13.036697,-0.28219604,0.07423401,0.029708862,10.62205853,76.14444353,5.4
19-02-2019 11.28,1.55056E+12,2.88562,6.2025604,12.270554,0.007553101,0.06677246,0.1149292,10.62205853,76.14444353,5.4
19-02-2019 11.28,1.55056E+12,1.1139069,4.189026,13.968033,0.008621216,0.16903687,0.03929138,10.62205853,76.14444353,5.4
19-02-2019 11.28,1.55056E+12,1.0037689,8.805054,4.807831,0.5092926,0.11578369,0.03929138,10.62205853,76.14444353,5.4
19-02-2019 11.28,1.55056E+12,0.17538452,0.6456146,10.642487,-0.120285034,0.16584778,-0.00970459,10.62205853,76.14444353,5.4
19-02-2019 11.28,1.55056E+12,1.6741486,2.7668762,6.828537,0.2078247,0.040145874,0.05101013,10.62205853,76.14444353,5.4
19-02-2019 11.28,1.55056E+12,1.3126221,3.8873596,8.18605,0.1566925,0.10832214,0.024383545,10.62205853,76.14444353,5.4
19-02-2019 11.28,1.55056E+12,0.6901245,6.0924225,9.54834,0.13537598,0.12750244,0.063797,10.62205853,76.14444353,5.4
19-02-2019 11.28,1.55056E+12,3.4841614,5.022217,6.4909515,-0.17248535,0.12643433,0.12771606,10.62205853,76.14444353,5.4
19-02-2019 11.28,1.55056E+12,0.5273285,6.932785,3.5939636,-0.003097534,0.24786377,0.06486511,10.62205853,76.14444353,5.4
19-02-2019 11.28,1.55056E+12,0.5345154,4.6271667,7.8029633,-0.4430542,0.22763062,0.09576416,10.62205853,76.14444353,5.4
19-02-2019 11.28,1.55056E+12,0.79307556,2.7692719,10.759811,-0.3557129,0.14134216,0.038238525,10.62205853,76.14444353,5.4
19-02-2019 11.28,1.55056E+12,0.49380493,4.536194,11.066269,0.029922485,0.13282776,-0.008636475,10.62205853,76.14444353,5.4
19-02-2019 11.28,1.55056E+12,0.27833557,2.568161,19.8051,-0.26835632,0.19247437,0.09788513,10.62205853,76.14444353,5.4
19-02-2019 11.28,1.55056E+12,1.7938538,4.3925476,12.23703,0.42193604,0.1285553,0.08616638,10.62205853,76.14444353,5.4
19-02-2019 11.28,1.55056E+12,1.8130188,7.4954224,5.4662323,0.49118042,0.18714905,-0.002243042,10.62205853,76.14444353,5.4
19-02-2019 11.28,1.55056E+12,0.5345154,5.366974,2.4471436,0.27919006,0.22976685,0.026519775,10.62205853,76.14444353,5.4
19-02-2019 11.28,1.55056E+12,0.4794464,0.6240692,10.65686,-0.45370483,0.24681091,0.0914917,10.62205853,76.14444353,5.4
19-02-2019 11.28,1.55056E+12,1.0588379,4.3566284,5.2172394,-0.02973938,0.23402405,0.0680542,10.62205853,76.14444353,5.4
19-02-2019 11.28,1.55056E+12,0.7140808,5.536972,5.322571,-0.0158844,0.22763062,-0.15563965,10.62205853,76.14444353,5.4
19-02-2019 11.28,1.55056E+12,0.7188568,3.0733337,11.968887,-0.2715454,0.20845032,-0.20358276,10.62205853,76.14444353,5.4
19-02-2019 11.28,1.55056E+12,3.4243164,3.3893738,7.2546997,0.033111572,0.12536621,-0.22381592,10.62205853,76.14444353,5.4
19-02-2019 11.28,1.55056E+12,1.6454163,7.1602325,4.2858887,0.0821228,0.3000641,-0.287735,10.62205853,76.14444353,5.4
19-02-2019 11.28,1.55056E+12,-1.3449402,3.777237,15.028671,-0.41856384,0.28622437,-0.30691528,10.62205853,76.14444353,5.4
19-02-2019 11.28,1.55056E+12,0.3357849,4.3925476,6.0001373,-9.77E-04,0.06677246,-0.22381592,10.62205853,76.14444353,5.4
